File: Examples/data/XRD_T2T_dataFile.dat
1E1 1E0
1.001E1 3E0
1.002E1 3E0
1.003E1 1E0
1.004E1 2E0
1.005E1 6E0
1.006E1 4E0
1.007E1 2E0
1.008E1 3E0
1.009E1 4E0
1.01E1 1E0
1.011E1 7E0
1.012E1 5E0
1.013E1 2E0
1.014E1 3E0
1.015E1 3E0
1.016E1 1E0
1.017E1 5E0
1.018E1 3E0
1.019E1 2E0
1.02E1 3E0
1.021E1 3E0
1.022E1 3E0
1.023E1 2E0
1.024E1 1E0
1.025E1 2E0
1.026E1 3E0
1.027E1 2E0
1.028E1 3E0
1.029E1 2E0
1.03E1 2E0
1.031E1 1E0
1.032E1 5E0
1.033E1 1E0
1.034E1 3E0
1.035E1 2E0
1.036E1 1E0
1.037E1 3E0
1.038E1 2E0
1.039E1 2E0
1.04E1 8E0
1.041E1 1E0
1.042E1 2E0
1.043E1 4E0
1.044E1 2E0
1.045E1 2E0
1.046E1 8E0
1.047E1 5E0
1.048E1 2E0
1.049E1 1E0
1.05E1 4E0
1.051E1 3E0
1.052E1 3E0
1.053E1 1E0
1.054E1 3E0
1.055E1 5E0
1.056E1 4E0
1.057E1 5E0
1.058E1 2E0
1.059E1 1E0
1.06E1 4E0
1.061E1 5E0
1.062E1 2E0
1.063E1 3E0
1.064E1 3E0
1.065E1 5E0
1.066E1 1E0
1.067E1 1E0
1.068E1 1E0
1.069E1 7E0
1.07E1 3E0
1.071E1 1E0
1.072E1 4E0
1.073E1 5E0
1.074E1 3E0
1.075E1 2E0
1.076E1 1E0
1.077E1 2E0
1.078E1 4E0
1.079E1 1E0
1.08E1 1E0
1.081E1 2E0
1.082E1 1E0
1.083E1 1E0
1.084E1 3E0
1.085E1 3E0
1.086E1 2E0
1.087E1 2E0
1.088E1 5E0
1.089E1 3E0
1.09E1 4E0
1.091E1 2E0
1.092E1 1E0
1.093E1 3E0
1.094E1 4E0
1.095E1 2E0
1.096E1 2E0
1.097E1 5E0
1.098E1 7E0
1.099E1 2E0
1.1E1 3E0
1.101E1 2E0
1.102E1 5E0
1.103E1 2E0
1.104E1 4E0
1.105E1 5E0
1.106E1 5E0
1.107E1 1E0
1.108E1 2E0
1.109E1 1E0
1.11E1 3E0
1.111E1 2E0
1.112E1 1E0
1.113E1 6E0
1.114E1 2E0
1.115E1 2E0
1.116E1 1E0
1.117E1 5E0
1.118E1 8E0
1.119E1 4E0
1.12E1 4E0
1.121E1 5E0
1.122E1 5E0
1.123E1 4E0
1.124E1 2E0
1.125E1 3E0
1.126E1 1E0
1.127E1 1E0
1.128E1 1E0
1.129E1 3E0
1.13E1 2E0
1.131E1 1E0
1.132E1 2E0
1.133E1 3E0
1.134E1 3E0
1.135E1 3E0
1.136E1 2E0
1.137E1 4E0
1.138E1 1E0
1.139E1 1E0
1.14E1 3E0
1.141E1 5E0
1.142E1 5E0
1.143E1 4E0
1.144E1 1E0
1.145E1 2E0
1.146E1 3E0
1.147E1 5E0
1.148E1 6E0
1.149E1 4E0
1.15E1 3E0
1.151E1 2E0
1.152E1 1E0
1.153E1 3E0
1.154E1 4E0
1.155E1 3E0
1.156E1 2E0
1.157E1 1E0
1.158E1 2E0
1.159E1 1E0
1.16E1 1E0
1.161E1 2E0
1.162E1 3E0
1.163E1 3E0
1.164E1 2E0
1.165E1 2E0
1.166E1 4E0
1.167E1 1E0
1.168E1 4E0
1.169E1 2E0
1.17E1 1E0
1.171E1 1E0
1.172E1 2E0
1.173E1 2E0
1.174E1 2E0
1.175E1 1E0
1.176E1 4E0
1.177E1 3E0
1.178E1 6E0
1.179E1 4E0
1.18E1 6E0
1.181E1 3E0
1.182E1 4E0
1.183E1 3E0
1.184E1 2E0
1.185E1 6E0
1.186E1 1E0
1.187E1 5E0
1.188E1 4E0
1.189E1 2E0
1.19E1 1E0
1.191E1 2E0
1.192E1 3E0
1.193E1 2E0
1.194E1 2E0
1.195E1 2E0
1.196E1 1E0
1.197E1 2E0
1.198E1 5E0
1.199E1 5E0
1.2E1 1E0
1.201E1 5E0
1.202E1 1E0
1.203E1 4E0
1.204E1 2E0
1.205E1 2E0
1.206E1 3E0
1.207E1 2E0
1.208E1 3E0
1.209E1 1E0
1.21E1 4E0
1.211E1 4E0
1.212E1 4E0
1.213E1 4E0
1.214E1 3E0
1.215E1 4E0
1.216E1 3E0
1.217E1 4E0
1.218E1 4E0
1.219E1 4E0
1.22E1 1E0
1.221E1 3E0
1.222E1 2E0
1.223E1 4E0
1.224E1 4E0
1.225E1 5E0
1.226E1 2E0
1.227E1 4E0
1.228E1 4E0
1.229E1 2E0
1.23E1 4E0
1.231E1 3E0
1.232E1 4E0
1.233E1 3E0
1.234E1 2E0
1.235E1 7E0
1.236E1 2E0
1.237E1 5E0
1.238E1 4E0
1.239E1 1E0
1.24E1 5E0
1.241E1 4E0
1.242E1 3E0
1.243E1 2E0
1.244E1 3E0
1.245E1 3E0
1.246E1 3E0
1.247E1 5E0
1.248E1 2E0
1.249E1 1E0
1.25E1 2E0
1.251E1 3E0
1.252E1 4E0
1.253E1 1E0
1.254E1 1E0
1.255E1 1E0
1.256E1 5E0
1.257E1 4E0
1.258E1 2E0
1.259E1 3E0
1.26E1 2E0
1.261E1 1E0
1.262E1 6E0
1.263E1 3E0
1.264E1 1E0
1.265E1 3E0
1.266E1 4E0
1.267E1 2E0
1.268E1 4E0
1.269E1 1E0
1.27E1 5E0
1.271E1 1E0
1.272E1 3E0
1.273E1 3E0
1.274E1 4E0
1.275E1 3E0
1.276E1 7E0
1.277E1 1E0
1.278E1 5E0
1.279E1 2E0
1.28E1 2E0
1.281E1 5E0
1.282E1 4E0
1.283E1 2E0
1.284E1 2E0
1.285E1 2E0
1.286E1 1E0
1.287E1 3E0
1.288E1 2E0
1.289E1 3E0
1.29E1 1E0
1.291E1 3E0
1.292E1 4E0
1.293E1 1E0
1.294E1 2E0
1.295E1 5E0
1.296E1 1E0
1.297E1 2E0
1.298E1 1E0
1.299E1 1E0
1.3E1 2E0
1.301E1 4E0
1.302E1 2E0
1.303E1 1E0
1.304E1 5E0
1.305E1 4E0
1.306E1 3E0
1.307E1 1E0
1.308E1 1E0
1.309E1 1E0
1.31E1 1E0
1.311E1 5E0
1.312E1 4E0
1.313E1 4E0
1.314E1 4E0
1.315E1 3E0
1.316E1 2E0
1.317E1 2E0
1.318E1 1E0
1.319E1 3E0
1.32E1 2E0
1.321E1 6E0
1.322E1 2E0
1.323E1 6E0
1.324E1 3E0
1.325E1 4E0
1.326E1 1E0
1.327E1 2E0
1.328E1 1E0
1.329E1 1E0
1.33E1 3E0
1.331E1 2E0
1.332E1 1E0
1.333E1 1E0
1.334E1 2E0
1.335E1 2E0
1.336E1 3E0
1.337E1 1E0
1.338E1 1E0
1.339E1 2E0
1.34E1 1E0
1.341E1 2E0
1.342E1 1E0
1.343E1 2E0
1.344E1 2E0
1.345E1 1E0
1.346E1 1E0
1.347E1 2E0
1.348E1 2E0
1.349E1 4E0
1.35E1 3E0
1.351E1 2E0
1.352E1 1E0
1.353E1 2E0
1.354E1 6E0
1.355E1 7E0
1.356E1 1E0
1.357E1 1E0
1.358E1 3E0
1.359E1 1E0
1.36E1 5E0
1.361E1 2E0
1.362E1 3E0
1.363E1 3E0
1.364E1 1E0
1.365E1 2E0
1.366E1 1E0
1.367E1 1E0
1.368E1 3E0
1.369E1 1E0
1.37E1 3E0
1.371E1 3E0
1.372E1 1E0
1.373E1 3E0
1.374E1 4E0
1.375E1 5E0
1.376E1 5E0
1.377E1 1E0
1.378E1 4E0
1.379E1 3E0
1.38E1 5E0
1.381E1 2E0
1.382E1 1E0
1.383E1 4E0
1.384E1 1E0
1.385E1 4E0
1.386E1 3E0
1.387E1 1E0
1.388E1 3E0
1.389E1 2E0
1.39E1 1E0
1.391E1 6E0
1.392E1 1E0
1.393E1 4E0
1.394E1 3E0
1.395E1 1E0
1.396E1 3E0
1.397E1 4E0
1.398E1 1E0
1.399E1 1E0
1.4E1 2E0
1.401E1 3E0
1.402E1 4E0
1.403E1 4E0
1.404E1 5E0
1.405E1 3E0
1.406E1 2E0
1.407E1 2E0
1.408E1 5E0
1.409E1 2E0
1.41E1 2E0
1.411E1 5E0
1.412E1 4E0
1.413E1 1E0
1.414E1 1E0
1.415E1 1E0
1.416E1 1E0
1.417E1 2E0
1.418E1 2E0
1.419E1 1E0
1.42E1 4E0
1.421E1 1E0
1.422E1 5E0
1.423E1 5E0
1.424E1 2E0
1.425E1 3E0
1.426E1 3E0
1.427E1 6E0
1.428E1 2E0
1.429E1 5E0
1.43E1 2E0
1.431E1 4E0
1.432E1 2E0
1.433E1 4E0
1.434E1 3E0
1.435E1 2E0
1.436E1 2E0
1.437E1 2E0
1.438E1 4E0
1.439E1 1E0
1.44E1 4E0
1.441E1 1E0
1.442E1 7E0
1.443E1 5E0
1.444E1 4E0
1.445E1 4E0
1.446E1 7E0
1.447E1 8E0
1.448E1 4E0
1.449E1 6E0
1.45E1 5E0
1.451E1 1.1E1
1.452E1 9E0
1.453E1 8E0
1.454E1 2.2E1
1.455E1 2.5E1
1.456E1 2.8E1
1.457E1 3.4E1
1.458E1 4E1
1.459E1 3.8E1
1.46E1 4.6E1
1.461E1 6.3E1
1.462E1 6.1E1
1.463E1 3.9E1
1.464E1 5E1
1.465E1 4.1E1
1.466E1 4.2E1
1.467E1 4.2E1
1.468E1 2.8E1
1.469E1 2.7E1
1.47E1 2.3E1
1.471E1 1.1E1
1.472E1 1.3E1
1.473E1 9E0
1.474E1 9E0
1.475E1 1.1E1
1.476E1 6E0
1.477E1 2E0
1.478E1 7E0
1.479E1 7E0
1.48E1 4E0
1.481E1 1E0
1.482E1 3E0
1.483E1 3E0
1.484E1 4E0
1.485E1 3E0
1.486E1 4E0
1.487E1 2E0
1.488E1 4E0
1.489E1 4E0
1.49E1 2E0
1.491E1 3E0
1.492E1 7E0
1.493E1 4E0
1.494E1 3E0
1.495E1 1E0
1.496E1 1E0
1.497E1 1E0
1.498E1 4E0
1.499E1 3E0
1.5E1 2E0
1.501E1 2E0
1.502E1 3E0
1.503E1 4E0
1.504E1 6E0
1.505E1 3E0
1.506E1 1E0
1.507E1 7E0
1.508E1 6E0
1.509E1 2E0
1.51E1 4E0
1.511E1 1E0
1.512E1 1E0
1.513E1 4E0
1.514E1 2E0
1.515E1 3E0
1.516E1 2E0
1.517E1 2E0
1.518E1 1E0
1.519E1 1E0
1.52E1 3E0
1.521E1 2E0
1.522E1 2E0
1.523E1 4E0
1.524E1 4E0
1.525E1 2E0
1.526E1 2E0
1.527E1 3E0
1.528E1 1E0
1.529E1 2E0
1.53E1 6E0
1.531E1 1E0
1.532E1 4E0
1.533E1 4E0
1.534E1 2E0
1.535E1 2E0
1.536E1 6E0
1.537E1 2E0
1.538E1 1E0
1.539E1 2E0
1.54E1 5E0
1.541E1 2E0
1.542E1 2E0
1.543E1 1E0
1.544E1 1E0
1.545E1 3E0
1.546E1 7E0
1.547E1 2E0
1.548E1 3E0
1.549E1 1E0
1.55E1 1E0
1.551E1 2E0
1.552E1 2E0
1.553E1 2E0
1.554E1 5E0
1.555E1 1E0
1.556E1 4E0
1.557E1 4E0
1.558E1 1E0
1.559E1 2E0
1.56E1 1E0
1.561E1 6E0
1.562E1 3E0
1.563E1 4E0
1.564E1 1E0
1.565E1 1E0
1.566E1 7E0
1.567E1 2E0
1.568E1 5E0
1.569E1 3E0
1.57E1 1E0
1.571E1 3E0
1.572E1 1E0
1.573E1 1E0
1.574E1 2E0
1.575E1 4E0
1.576E1 5E0
1.577E1 1E0
1.578E1 2E0
1.579E1 1E0
1.58E1 3E0
1.581E1 3E0
1.582E1 5E0
1.583E1 2E0
1.584E1 2E0
1.585E1 3E0
1.586E1 1E0
1.587E1 4E0
1.588E1 2E0
1.589E1 2E0
1.59E1 2E0
1.591E1 1E0
1.592E1 3E0
1.593E1 1E0
1.594E1 3E0
1.595E1 2E0
1.596E1 5E0
1.597E1 1E0
1.598E1 3E0
1.599E1 5E0
1.6E1 1E0
1.601E1 2E0
1.602E1 2E0
1.603E1 3E0
1.604E1 3E0
1.605E1 1E0
1.606E1 4E0
1.607E1 3E0
1.608E1 1E0
1.609E1 4E0
1.61E1 2E0
1.611E1 2E0
1.612E1 5E0
1.613E1 3E0
1.614E1 2E0
1.615E1 4E0
1.616E1 4E0
1.617E1 3E0
1.618E1 1E0
1.619E1 5E0
1.62E1 1E0
1.621E1 5E0
1.622E1 2E0
1.623E1 2E0
1.624E1 4E0
1.625E1 3E0
1.626E1 1E0
1.627E1 4E0
1.628E1 3E0
1.629E1 1E0
1.63E1 3E0
1.631E1 4E0
1.632E1 2E0
1.633E1 1E0
1.634E1 3E0
1.635E1 4E0
1.636E1 4E0
1.637E1 2E0
1.638E1 4E0
1.639E1 1E0
1.64E1 5E0
1.641E1 4E0
1.642E1 5E0
1.643E1 1E0
1.644E1 5E0
1.645E1 2E0
1.646E1 3E0
1.647E1 2E0
1.648E1 2E0
1.649E1 1E0
1.65E1 1E0
1.651E1 2E0
1.652E1 2E0
1.653E1 3E0
1.654E1 2E0
1.655E1 3E0
1.656E1 1E0
1.657E1 8E0
1.658E1 2E0
1.659E1 1E0
1.66E1 1E0
1.661E1 2E0
1.662E1 2E0
1.663E1 2E0
1.664E1 4E0
1.665E1 4E0
1.666E1 2E0
1.667E1 1E0
1.668E1 1E0
1.669E1 2E0
1.67E1 3E0
1.671E1 4E0
1.672E1 2E0
1.673E1 3E0
1.674E1 3E0
1.675E1 3E0
1.676E1 6E0
1.677E1 3E0
1.678E1 1E0
1.679E1 3E0
1.68E1 2E0
1.681E1 2E0
1.682E1 1E0
1.683E1 2E0
1.684E1 1E0
1.685E1 2E0
1.686E1 3E0
1.687E1 2E0
1.688E1 2E0
1.689E1 4E0
1.69E1 2E0
1.691E1 2E0
1.692E1 1E0
1.693E1 3E0
1.694E1 1E0
1.695E1 2E0
1.696E1 2E0
1.697E1 1E0
1.698E1 4E0
1.699E1 1E0
1.7E1 1E0
1.701E1 4E0
1.702E1 2E0
1.703E1 1E0
1.704E1 2E0
1.705E1 4E0
1.706E1 1E0
1.707E1 2E0
1.708E1 4E0
1.709E1 1E0
1.71E1 1E0
1.711E1 4E0
1.712E1 1E0
1.713E1 2E0
1.714E1 2E0
1.715E1 2E0
1.716E1 5E0
1.717E1 1E0
1.718E1 3E0
1.719E1 3E0
1.72E1 4E0
1.721E1 2E0
1.722E1 1E0
1.723E1 1E0
1.724E1 2E0
1.725E1 2E0
1.726E1 1E0
1.727E1 1E0
1.728E1 1E0
1.729E1 1E0
1.73E1 2E0
1.731E1 1E0
1.732E1 3E0
1.733E1 1E0
1.734E1 1E0
1.735E1 4E0
1.736E1 4E0
1.737E1 3E0
1.738E1 2E0
1.739E1 1E0
1.74E1 1E0
1.741E1 2E0
1.742E1 3E0
1.743E1 1E0
1.744E1 1E0
1.745E1 4E0
1.746E1 3E0
1.747E1 2E0
1.748E1 3E0
1.749E1 1E0
1.75E1 2E0
1.751E1 1E0
1.752E1 3E0
1.753E1 3E0
1.754E1 1E0
1.755E1 1E0
1.756E1 1E0
1.757E1 1E0
1.758E1 2E0
1.759E1 2E0
1.76E1 3E0
1.761E1 2E0
1.762E1 1E0
1.763E1 1E0
1.764E1 3E0
1.765E1 1E0
1.766E1 4E0
1.767E1 2E0
1.768E1 2E0
1.769E1 1E0
1.77E1 4E0
1.771E1 6E0
1.772E1 1E0
1.773E1 2E0
1.774E1 3E0
1.775E1 1E0
1.776E1 2E0
1.777E1 1E0
1.778E1 2E0
1.779E1 3E0
1.78E1 1E0
1.781E1 3E0
1.782E1 2E0
1.783E1 3E0
1.784E1 5E0
1.785E1 1E0
1.786E1 3E0
1.787E1 1E0
1.788E1 1E0
1.789E1 1E0
1.79E1 3E0
1.791E1 3E0
1.792E1 1E0
1.793E1 1E0
1.794E1 1E0
1.795E1 4E0
1.796E1 3E0
1.797E1 1E0
1.798E1 1E0
1.799E1 5E0
1.8E1 4E0
1.801E1 3E0
1.802E1 4E0
1.803E1 3E0
1.804E1 2E0
1.805E1 3E0
1.806E1 2E0
1.807E1 2E0
1.808E1 1E0
1.809E1 1E0
1.81E1 2E0
1.811E1 6E0
1.812E1 1E0
1.813E1 2E0
1.814E1 3E0
1.815E1 2E0
1.816E1 1E0
1.817E1 1E0
1.818E1 5E0
1.819E1 5E0
1.82E1 2E0
1.821E1 1E0
1.822E1 4E0
1.823E1 1E0
1.824E1 4E0
1.825E1 1E0
1.826E1 5E0
1.827E1 1E0
1.828E1 3E0
1.829E1 1E0
1.83E1 1E0
1.831E1 1E0
1.832E1 2E0
1.833E1 3E0
1.834E1 1E0
1.835E1 4E0
1.836E1 5E0
1.837E1 1E0
1.838E1 3E0
1.839E1 1E0
1.84E1 1E0
1.841E1 2E0
1.842E1 1E0
1.843E1 1E0
1.844E1 3E0
1.845E1 2E0
1.846E1 2E0
1.847E1 5E0
1.848E1 2E0
1.849E1 2E0
1.85E1 3E0
1.851E1 2E0
1.852E1 2E0
1.853E1 2E0
1.854E1 1E0
1.855E1 4E0
1.856E1 2E0
1.857E1 1E0
1.858E1 2E0
1.859E1 3E0
1.86E1 1E0
1.861E1 2E0
1.862E1 3E0
1.863E1 1E0
1.864E1 1E0
1.865E1 6E0
1.866E1 3E0
1.867E1 2E0
1.868E1 3E0
1.869E1 1E0
1.87E1 1E0
1.871E1 2E0
1.872E1 1E0
1.873E1 2E0
1.874E1 3E0
1.875E1 4E0
1.876E1 4E0
1.877E1 5E0
1.878E1 2E0
1.879E1 1E0
1.88E1 1E0
1.881E1 3E0
1.882E1 1E0
1.883E1 2E0
1.884E1 1E0
1.885E1 3E0
1.886E1 2E0
1.887E1 4E0
1.888E1 1E0
1.889E1 6E0
1.89E1 1E0
1.891E1 1E0
1.892E1 2E0
1.893E1 1E0
1.894E1 1E0
1.895E1 2E0
1.896E1 3E0
1.897E1 2E0
1.898E1 1E0
1.899E1 3E0
1.9E1 3E0
1.901E1 1E0
1.902E1 4E0
1.903E1 1E0
1.904E1 1E0
1.905E1 3E0
1.906E1 3E0
1.907E1 2E0
1.908E1 2E0
1.909E1 5E0
1.91E1 1E0
1.911E1 1E0
1.912E1 1E0
1.913E1 4E0
1.914E1 3E0
1.915E1 1E0
1.916E1 2E0
1.917E1 5E0
1.918E1 5E0
1.919E1 2E0
1.92E1 4E0
1.921E1 2E0
1.922E1 1E0
1.923E1 3E0
1.924E1 3E0
1.925E1 5E0
1.926E1 3E0
1.927E1 3E0
1.928E1 4E0
1.929E1 1E0
1.93E1 1E0
1.931E1 1E0
1.932E1 2E0
1.933E1 1E0
1.934E1 3E0
1.935E1 2E0
1.936E1 6E0
1.937E1 1E0
1.938E1 3E0
1.939E1 2E0
1.94E1 4E0
1.941E1 3E0
1.942E1 4E0
1.943E1 2E0
1.944E1 3E0
1.945E1 1E0
1.946E1 1E0
1.947E1 3E0
1.948E1 2E0
1.949E1 3E0
1.95E1 2E0
1.951E1 3E0
1.952E1 4E0
1.953E1 4E0
1.954E1 1E0
1.955E1 3E0
1.956E1 1E0
1.957E1 1E0
1.958E1 4E0
1.959E1 6E0
1.96E1 2E0
1.961E1 2E0
1.962E1 1E0
1.963E1 4E0
1.964E1 4E0
1.965E1 2E0
1.966E1 3E0
1.967E1 5E0
1.968E1 1E0
1.969E1 2E0
1.97E1 1E0
1.971E1 2E0
1.972E1 2E0
1.973E1 1E0
1.974E1 2E0
1.975E1 4E0
1.976E1 1E0
1.977E1 3E0
1.978E1 2E0
1.979E1 3E0
1.98E1 1E0
1.981E1 3E0
1.982E1 5E0
1.983E1 1E0
1.984E1 1E0
1.985E1 4E0
1.986E1 2E0
1.987E1 2E0
1.988E1 2E0
1.989E1 3E0
1.99E1 2E0
1.991E1 3E0
1.992E1 2E0
1.993E1 2E0
1.994E1 3E0
1.995E1 3E0
1.996E1 1E0
1.997E1 3E0
1.998E1 3E0
1.999E1 2E0
2E1 2E0
2.001E1 5E0
2.002E1 3E0
2.003E1 3E0
2.004E1 1E0
2.005E1 4E0
2.006E1 1E0
2.007E1 1E0
2.008E1 2E0
2.009E1 5E0
2.01E1 3E0
2.011E1 5E0
2.012E1 3E0
2.013E1 3E0
2.014E1 2E0
2.015E1 2E0
2.016E1 1E0
2.017E1 2E0
2.018E1 6E0
2.019E1 3E0
2.02E1 4E0
2.021E1 3E0
2.022E1 2E0
2.023E1 1E0
2.024E1 2E0
2.025E1 4E0
2.026E1 1E0
2.027E1 3E0
2.028E1 3E0
2.029E1 3E0
2.03E1 1E0
2.031E1 1E0
2.032E1 3E0
2.033E1 4E0
2.034E1 4E0
2.035E1 3E0
2.036E1 3E0
2.037E1 2E0
2.038E1 1E0
2.039E1 1E0
2.04E1 1E0
2.041E1 3E0
2.042E1 1E0
2.043E1 1E0
2.044E1 3E0
2.045E1 1E0
2.046E1 1E0
2.047E1 2E0
2.048E1 2E0
2.049E1 2E0
2.05E1 4E0
2.051E1 1E0
2.052E1 3E0
2.053E1 2E0
2.054E1 1E0
2.055E1 2E0
2.056E1 1E0
2.057E1 2E0
2.058E1 2E0
2.059E1 6E0
2.06E1 2E0
2.061E1 2E0
2.062E1 1E0
2.063E1 1E0
2.064E1 2E0
2.065E1 1E0
2.066E1 4E0
2.067E1 2E0
2.068E1 1E0
2.069E1 5E0
2.07E1 2E0
2.071E1 1E0
2.072E1 2E0
2.073E1 5E0
2.074E1 5E0
2.075E1 1E0
2.076E1 3E0
2.077E1 1E0
2.078E1 2E0
2.079E1 1E0
2.08E1 1E0
2.081E1 1E0
2.082E1 3E0
2.083E1 2E0
2.084E1 4E0
2.085E1 2E0
2.086E1 2E0
2.087E1 5E0
2.088E1 3E0
2.089E1 3E0
2.09E1 2E0
2.091E1 4E0
2.092E1 2E0
2.093E1 1E0
2.094E1 2E0
2.095E1 1E0
2.096E1 2E0
2.097E1 2E0
2.098E1 1E0
2.099E1 2E0
2.1E1 1E0
2.101E1 3E0
2.102E1 1E0
2.103E1 2E0
2.104E1 2E0
2.105E1 3E0
2.106E1 1E0
2.107E1 1E0
2.108E1 2E0
2.109E1 3E0
2.11E1 4E0
2.111E1 2E0
2.112E1 2E0
2.113E1 3E0
2.114E1 2E0
2.115E1 5E0
2.116E1 1E0
2.117E1 4E0
2.118E1 1E0
2.119E1 2E0
2.12E1 5E0
2.121E1 3E0
2.122E1 3E0
2.123E1 3E0
2.124E1 2E0
2.125E1 6E0
2.126E1 6E0
2.127E1 4E0
2.128E1 3E0
2.129E1 1E0
2.13E1 2E0
2.131E1 2E0
2.132E1 2E0
2.133E1 3E0
2.134E1 2E0
2.135E1 2E0
2.136E1 4E0
2.137E1 1E0
2.138E1 3E0
2.139E1 2E0
2.14E1 7E0
2.141E1 3E0
2.142E1 1E0
2.143E1 2E0
2.144E1 2E0
2.145E1 7E0
2.146E1 4E0
2.147E1 2E0
2.148E1 6E0
2.149E1 3E0
2.15E1 2E0
2.151E1 2E0
2.152E1 4E0
2.153E1 1E0
2.154E1 5E0
2.155E1 1E0
2.156E1 3E0
2.157E1 1E0
2.158E1 6E0
2.159E1 3E0
2.16E1 1E0
2.161E1 4E0
2.162E1 1E0
2.163E1 3E0
2.164E1 1E0
2.165E1 1E0
2.166E1 3E0
2.167E1 2E0
2.168E1 2E0
2.169E1 1E0
2.17E1 3E0
2.171E1 3E0
2.172E1 3E0
2.173E1 2E0
2.174E1 1E0
2.175E1 1E0
2.176E1 5E0
2.177E1 4E0
2.178E1 1E0
2.179E1 1E0
2.18E1 1E0
2.181E1 2E0
2.182E1 4E0
2.183E1 1E0
2.184E1 2E0
2.185E1 8E0
2.186E1 4E0
2.187E1 3E0
2.188E1 2E0
2.189E1 5E0
2.19E1 2E0
2.191E1 3E0
2.192E1 3E0
2.193E1 3E0
2.194E1 2E0
2.195E1 5E0
2.196E1 2E0
2.197E1 6E0
2.198E1 3E0
2.199E1 1E0
2.2E1 2E0
2.201E1 2E0
2.202E1 1E0
2.203E1 2E0
2.204E1 2E0
2.205E1 4E0
2.206E1 1E0
2.207E1 3E0
2.208E1 4E0
2.209E1 1E0
2.21E1 2E0
2.211E1 3E0
2.212E1 3E0
2.213E1 5E0
2.214E1 3E0
2.215E1 2E0
2.216E1 4E0
2.217E1 1E0
2.218E1 1E0
2.219E1 6E0
2.22E1 1E0
2.221E1 4E0
2.222E1 2E0
2.223E1 2E0
2.224E1 3E0
2.225E1 2E0
2.226E1 3E0
2.227E1 3E0
2.228E1 2E0
2.229E1 2E0
2.23E1 3E0
2.231E1 1E0
2.232E1 3E0
2.233E1 4E0
2.234E1 2E0
2.235E1 1E0
2.236E1 5E0
2.237E1 3E0
2.238E1 3E0
2.239E1 3E0
2.24E1 4E0
2.241E1 3E0
2.242E1 2E0
2.243E1 2E0
2.244E1 1E0
2.245E1 2E0
2.246E1 3E0
2.247E1 1E0
2.248E1 3E0
2.249E1 3E0
2.25E1 1E0
2.251E1 4E0
2.252E1 2E0
2.253E1 3E0
2.254E1 1E0
2.255E1 5E0
2.256E1 5E0
2.257E1 1E0
2.258E1 4E0
2.259E1 1E0
2.26E1 3E0
2.261E1 3E0
2.262E1 4E0
2.263E1 3E0
2.264E1 2E0
2.265E1 3E0
2.266E1 2E0
2.267E1 2E0
2.268E1 1E0
2.269E1 1E0
2.27E1 3E0
2.271E1 2E0
2.272E1 2E0
2.273E1 1E0
2.274E1 4E0
2.275E1 4E0
2.276E1 4E0
2.277E1 1E0
2.278E1 2E0
2.279E1 2E0
2.28E1 1E0
2.281E1 1E0
2.282E1 6E0
2.283E1 3E0
2.284E1 4E0
2.285E1 3E0
2.286E1 2E0
2.287E1 3E0
2.288E1 5E0
2.289E1 7E0
2.29E1 1E0
2.291E1 6E0
2.292E1 3E0
2.293E1 5E0
2.294E1 2E0
2.295E1 1.9E1
2.296E1 2.4E1
2.297E1 2.76E2
2.298E1 1.175E3
2.299E1 2.445E3
2.3E1 2.649E3
2.301E1 1.246E3
2.302E1 2.44E2
2.303E1 7.5E1
2.304E1 3E1
2.305E1 1.5E1
2.306E1 1.3E1
2.307E1 1.2E1
2.308E1 5E0
2.309E1 5E0
2.31E1 6E0
2.311E1 6E0
2.312E1 5E0
2.313E1 8E0
2.314E1 3E0
2.315E1 5E0
2.316E1 5E0
2.317E1 3E0
2.318E1 2E0
2.319E1 4E0
2.32E1 3E0
2.321E1 2E0
2.322E1 5E0
2.323E1 2E0
2.324E1 3E0
2.325E1 2E0
2.326E1 3E0
2.327E1 1E0
2.328E1 4E0
2.329E1 5E0
2.33E1 4E0
2.331E1 5E0
2.332E1 2E0
2.333E1 1E0
2.334E1 4E0
2.335E1 4E0
2.336E1 4E0
2.337E1 7E0
2.338E1 4E0
2.339E1 2E0
2.34E1 5E0
2.341E1 4E0
2.342E1 3E0
2.343E1 2E0
2.344E1 5E0
2.345E1 2E0
2.346E1 3E0
2.347E1 2E0
2.348E1 1E0
2.349E1 6E0
2.35E1 3E0
2.351E1 7E0
2.352E1 5E0
2.353E1 6E0
2.354E1 2E0
2.355E1 1E0
2.356E1 2E0
2.357E1 1E0
2.358E1 2E0
2.359E1 1E0
2.36E1 1E0
2.361E1 2E0
2.362E1 3E0
2.363E1 2E0
2.364E1 3E0
2.365E1 2E0
2.366E1 1E0
2.367E1 2E0
2.368E1 3E0
2.369E1 1E0
2.37E1 2E0
2.371E1 1E0
2.372E1 4E0
2.373E1 2E0
2.374E1 7E0
2.375E1 4E0
2.376E1 1E0
2.377E1 1E0
2.378E1 2E0
2.379E1 1E0
2.38E1 5E0
2.381E1 1E0
2.382E1 2E0
2.383E1 3E0
2.384E1 4E0
2.385E1 3E0
2.386E1 1E0
2.387E1 5E0
2.388E1 3E0
2.389E1 1E0
2.39E1 1E0
2.391E1 3E0
2.392E1 4E0
2.393E1 4E0
2.394E1 6E0
2.395E1 1E0
2.396E1 2E0
2.397E1 1E0
2.398E1 4E0
2.399E1 3E0
2.4E1 6E0
2.401E1 3E0
2.402E1 3E0
2.403E1 3E0
2.404E1 3E0
2.405E1 3E0
2.406E1 4E0
2.407E1 6E0
2.408E1 1E0
2.409E1 1E0
2.41E1 3E0
2.411E1 3E0
2.412E1 1E0
2.413E1 5E0
2.414E1 4E0
2.415E1 1E0
2.416E1 5E0
2.417E1 2E0
2.418E1 1E0
2.419E1 6E0
2.42E1 3E0
2.421E1 2E0
2.422E1 2E0
2.423E1 3E0
2.424E1 2E0
2.425E1 5E0
2.426E1 2E0
2.427E1 4E0
2.428E1 3E0
2.429E1 3E0
2.43E1 1E0
2.431E1 4E0
2.432E1 3E0
2.433E1 3E0
2.434E1 1E0
2.435E1 2E0
2.436E1 4E0
2.437E1 1E0
2.438E1 4E0
2.439E1 3E0
2.44E1 6E0
2.441E1 1E1
2.442E1 3E0
2.443E1 4E0
2.444E1 3E0
2.445E1 1E0
2.446E1 1E0
2.447E1 1E0
2.448E1 1E0
2.449E1 2E0
2.45E1 1E0
2.451E1 4E0
2.452E1 5E0
2.453E1 6E0
2.454E1 2E0
2.455E1 1E0
2.456E1 2E0
2.457E1 3E0
2.458E1 1E0
2.459E1 3E0
2.46E1 2E0
2.461E1 2E0
2.462E1 2E0
2.463E1 3E0
2.464E1 4E0
2.465E1 3E0
2.466E1 7E0
2.467E1 5E0
2.468E1 3E0
2.469E1 4E0
2.47E1 4E0
2.471E1 4E0
2.472E1 5E0
2.473E1 1E0
2.474E1 2E0
2.475E1 3E0
2.476E1 3E0
2.477E1 1E0
2.478E1 3E0
2.479E1 4E0
2.48E1 4E0
2.481E1 2E0
2.482E1 2E0
2.483E1 2E0
2.484E1 3E0
2.485E1 1E0
2.486E1 1E0
2.487E1 3E0
2.488E1 4E0
2.489E1 3E0
2.49E1 3E0
2.491E1 3E0
2.492E1 1E0
2.493E1 1E0
2.494E1 3E0
2.495E1 8E0
2.496E1 3E0
2.497E1 2E0
2.498E1 3E0
2.499E1 1E0
2.5E1 2E0
2.501E1 5E0
2.502E1 4E0
2.503E1 3E0
2.504E1 2E0
2.505E1 2E0
2.506E1 1E0
2.507E1 4E0
2.508E1 2E0
2.509E1 1E0
2.51E1 3E0
2.511E1 2E0
2.512E1 2E0
2.513E1 5E0
2.514E1 1E0
2.515E1 2E0
2.516E1 2E0
2.517E1 2E0
2.518E1 1E0
2.519E1 4E0
2.52E1 1E0
2.521E1 1E0
2.522E1 1E0
2.523E1 1E0
2.524E1 3E0
2.525E1 2E0
2.526E1 2E0
2.527E1 5E0
2.528E1 1E0
2.529E1 1E0
2.53E1 1E0
2.531E1 4E0
2.532E1 1E0
2.533E1 4E0
2.534E1 2E0
2.535E1 2E0
2.536E1 2E0
2.537E1 2E0
2.538E1 1E0
2.539E1 1E0
2.54E1 2E0
2.541E1 1E0
2.542E1 2E0
2.543E1 1E0
2.544E1 3E0
2.545E1 2E0
2.546E1 4E0
2.547E1 2E0
2.548E1 2E0
2.549E1 1E0
2.55E1 3E0
2.551E1 2E0
2.552E1 1E0
2.553E1 2E0
2.554E1 2E0
2.555E1 2E0
2.556E1 2E0
2.557E1 3E0
2.558E1 2E0
2.559E1 2E0
2.56E1 4E0
2.561E1 1E0
2.562E1 1E0
2.563E1 1E0
2.564E1 2E0
2.565E1 1E0
2.566E1 3E0
2.567E1 1E0
2.568E1 1E0
2.569E1 1E0
2.57E1 2E0
2.571E1 6E0
2.572E1 1E0
2.573E1 1E0
2.574E1 2E0
2.575E1 2E0
2.576E1 3E0
2.577E1 1E0
2.578E1 1E0
2.579E1 1E0
2.58E1 2E0
2.581E1 1E0
2.582E1 5E0
2.583E1 6E0
2.584E1 2E0
2.585E1 2E0
2.586E1 2E0
2.587E1 1E0
2.588E1 1E0
2.589E1 3E0
2.59E1 1E0
2.591E1 3E0
2.592E1 2E0
2.593E1 2E0
2.594E1 1E0
2.595E1 1E0
2.596E1 3E0
2.597E1 5E0
2.598E1 2E0
2.599E1 2E0
2.6E1 1E0
2.601E1 3E0
2.602E1 2E0
2.603E1 1E0
2.604E1 5E0
2.605E1 1E0
2.606E1 3E0
2.607E1 2E0
2.608E1 2E0
2.609E1 4E0
2.61E1 2E0
2.611E1 4E0
2.612E1 3E0
2.613E1 2E0
2.614E1 2E0
2.615E1 4E0
2.616E1 2E0
2.617E1 1E0
2.618E1 3E0
2.619E1 2E0
2.62E1 1E0
2.621E1 4E0
2.622E1 1E0
2.623E1 3E0
2.624E1 7E0
2.625E1 2E0
2.626E1 5E0
2.627E1 3E0
2.628E1 4E0
2.629E1 1E0
2.63E1 4E0
2.631E1 1E0
2.632E1 3E0
2.633E1 3E0
2.634E1 3E0
2.635E1 4E0
2.636E1 3E0
2.637E1 4E0
2.638E1 3E0
2.639E1 2E0
2.64E1 4E0
2.641E1 3E0
2.642E1 4E0
2.643E1 3E0
2.644E1 4E0
2.645E1 7E0
2.646E1 4E0
2.647E1 1E0
2.648E1 2E0
2.649E1 4E0
2.65E1 2E0
2.651E1 1E0
2.652E1 3E0
2.653E1 2E0
2.654E1 2E0
2.655E1 1E0
2.656E1 3E0
2.657E1 1E0
2.658E1 1E0
2.659E1 5E0
2.66E1 4E0
2.661E1 1E0
2.662E1 1E0
2.663E1 5E0
2.664E1 3E0
2.665E1 5E0
2.666E1 2E0
2.667E1 1E0
2.668E1 4E0
2.669E1 4E0
2.67E1 1E0
2.671E1 4E0
2.672E1 2E0
2.673E1 1E0
2.674E1 1E0
2.675E1 1E0
2.676E1 1E0
2.677E1 1E0
2.678E1 5E0
2.679E1 1E0
2.68E1 4E0
2.681E1 4E0
2.682E1 2E0
2.683E1 6E0
2.684E1 3E0
2.685E1 5E0
2.686E1 3E0
2.687E1 3E0
2.688E1 2E0
2.689E1 1E0
2.69E1 3E0
2.691E1 2E0
2.692E1 4E0
2.693E1 1E0
2.694E1 3E0
2.695E1 3E0
2.696E1 1E0
2.697E1 2E0
2.698E1 2E0
2.699E1 7E0
2.7E1 2E0
2.701E1 3E0
2.702E1 4E0
2.703E1 2E0
2.704E1 2E0
2.705E1 1E0
2.706E1 1E0
2.707E1 2E0
2.708E1 3E0
2.709E1 1E0
2.71E1 5E0
2.711E1 3E0
2.712E1 3E0
2.713E1 4E0
2.714E1 1E0
2.715E1 3E0
2.716E1 2E0
2.717E1 1E0
2.718E1 2E0
2.719E1 4E0
2.72E1 1E0
2.721E1 3E0
2.722E1 3E0
2.723E1 6E0
2.724E1 1E0
2.725E1 2E0
2.726E1 1E0
2.727E1 2E0
2.728E1 8E0
2.729E1 4E0
2.73E1 4E0
2.731E1 1E0
2.732E1 1E0
2.733E1 2E0
2.734E1 2E0
2.735E1 4E0
2.736E1 2E0
2.737E1 1E0
2.738E1 4E0
2.739E1 4E0
2.74E1 2E0
2.741E1 3E0
2.742E1 7E0
2.743E1 1E0
2.744E1 2E0
2.745E1 1E0
2.746E1 3E0
2.747E1 5E0
2.748E1 3E0
2.749E1 5E0
2.75E1 1E0
2.751E1 1E0
2.752E1 1E0
2.753E1 4E0
2.754E1 3E0
2.755E1 3E0
2.756E1 4E0
2.757E1 4E0
2.758E1 1E0
2.759E1 1E0
2.76E1 1E0
2.761E1 3E0
2.762E1 5E0
2.763E1 1E0
2.764E1 6E0
2.765E1 1E0
2.766E1 2E0
2.767E1 3E0
2.768E1 5E0
2.769E1 1E0
2.77E1 7E0
2.771E1 5E0
2.772E1 3E0
2.773E1 1E0
2.774E1 1E0
2.775E1 3E0
2.776E1 5E0
2.777E1 2E0
2.778E1 2E0
2.779E1 3E0
2.78E1 1E0
2.781E1 1E0
2.782E1 1E0
2.783E1 1E0
2.784E1 1E0
2.785E1 4E0
2.786E1 3E0
2.787E1 3E0
2.788E1 3E0
2.789E1 4E0
2.79E1 2E0
2.791E1 1E0
2.792E1 1E0
2.793E1 2E0
2.794E1 1E0
2.795E1 5E0
2.796E1 2E0
2.797E1 7E0
2.798E1 1E0
2.799E1 3E0
2.8E1 4E0
2.801E1 5E0
2.802E1 3E0
2.803E1 2E0
2.804E1 7E0
2.805E1 2E0
2.806E1 5E0
2.807E1 2E0
2.808E1 3E0
2.809E1 3E0
2.81E1 3E0
2.811E1 1E0
2.812E1 5E0
2.813E1 1E0
2.814E1 3E0
2.815E1 3E0
2.816E1 2E0
2.817E1 4E0
2.818E1 1E0
2.819E1 3E0
2.82E1 2E0
2.821E1 2E0
2.822E1 2E0
2.823E1 1E0
2.824E1 3E0
2.825E1 3E0
2.826E1 4E0
2.827E1 1E0
2.828E1 2E0
2.829E1 3E0
2.83E1 2E0
2.831E1 6E0
2.832E1 2E0
2.833E1 1E0
2.834E1 5E0
2.835E1 1E0
2.836E1 2E0
2.837E1 1E0
2.838E1 3E0
2.839E1 3E0
2.84E1 1E0
2.841E1 4E0
2.842E1 4E0
2.843E1 4E0
2.844E1 3E0
2.845E1 1E0
2.846E1 6E0
2.847E1 1E0
2.848E1 5E0
2.849E1 2E0
2.85E1 3E0
2.851E1 5E0
2.852E1 1E0
2.853E1 2E0
2.854E1 5E0
2.855E1 3E0
2.856E1 4E0
2.857E1 4E0
2.858E1 1E0
2.859E1 1E0
2.86E1 6E0
2.861E1 2E0
2.862E1 5E0
2.863E1 3E0
2.864E1 4E0
2.865E1 4E0
2.866E1 3E0
2.867E1 2E0
2.868E1 4E0
2.869E1 3E0
2.87E1 1E0
2.871E1 1E0
2.872E1 8E0
2.873E1 2E0
2.874E1 5E0
2.875E1 5E0
2.876E1 5E0
2.877E1 4E0
2.878E1 1E0
2.879E1 2E0
2.88E1 4E0
2.881E1 4E0
2.882E1 3E0
2.883E1 3E0
2.884E1 2E0
2.885E1 4E0
2.886E1 4E0
2.887E1 4E0
2.888E1 5E0
2.889E1 4E0
2.89E1 5E0
2.891E1 4E0
2.892E1 2E0
2.893E1 2E0
2.894E1 5E0
2.895E1 4E0
2.896E1 2E0
2.897E1 1E0
2.898E1 4E0
2.899E1 5E0
2.9E1 3E0
2.901E1 8E0
2.902E1 6E0
2.903E1 2E0
2.904E1 3E0
2.905E1 3E0
2.906E1 1E0
2.907E1 2E0
2.908E1 3E0
2.909E1 5E0
2.91E1 5E0
2.911E1 3E0
2.912E1 5E0
2.913E1 7E0
2.914E1 5E0
2.915E1 8E0
2.916E1 1.2E1
2.917E1 5E0
2.918E1 3E0
2.919E1 5E0
2.92E1 6E0
2.921E1 5E0
2.922E1 5E0
2.923E1 8E0
2.924E1 8E0
2.925E1 1.5E1
2.926E1 8E0
2.927E1 1.7E1
2.928E1 1.8E1
2.929E1 1.8E1
2.93E1 1.5E1
2.931E1 1.5E1
2.932E1 2.4E1
2.933E1 2.3E1
2.934E1 3.1E1
2.935E1 2.9E1
2.936E1 6.4E1
2.937E1 9.1E1
2.938E1 1.12E2
2.939E1 1.14E2
2.94E1 1.67E2
2.941E1 2.12E2
2.942E1 2.48E2
2.943E1 2.46E2
2.944E1 2.61E2
2.945E1 2.95E2
2.946E1 3.18E2
2.947E1 2.89E2
2.948E1 2.66E2
2.949E1 2.9E2
2.95E1 1.99E2
2.951E1 2.09E2
2.952E1 1.92E2
2.953E1 1.33E2
2.954E1 1E2
2.955E1 1.01E2
2.956E1 7.5E1
2.957E1 6.1E1
2.958E1 5.8E1
2.959E1 3.3E1
2.96E1 2.5E1
2.961E1 1.7E1
2.962E1 2.5E1
2.963E1 2.7E1
2.964E1 1.1E1
2.965E1 1.9E1
2.966E1 1.5E1
2.967E1 1.2E1
2.968E1 7E0
2.969E1 7E0
2.97E1 7E0
2.971E1 8E0
2.972E1 7E0
2.973E1 5E0
2.974E1 8E0
2.975E1 7E0
2.976E1 7E0
2.977E1 4E0
2.978E1 6E0
2.979E1 5E0
2.98E1 8E0
2.981E1 5E0
2.982E1 6E0
2.983E1 2E0
2.984E1 4E0
2.985E1 6E0
2.986E1 6E0
2.987E1 4E0
2.988E1 6E0
2.989E1 1E0
2.99E1 7E0
2.991E1 5E0
2.992E1 4E0
2.993E1 3E0
2.994E1 5E0
2.995E1 6E0
2.996E1 2E0
2.997E1 3E0
2.998E1 4E0
2.999E1 2E0
3E1 3E0
3.001E1 3E0
3.002E1 1E0
3.003E1 4E0
3.004E1 2E0
3.005E1 8E0
3.006E1 4E0
3.007E1 1E0
3.008E1 3E0
3.009E1 3E0
3.01E1 4E0
3.011E1 3E0
3.012E1 3E0
3.013E1 3E0
3.014E1 3E0
3.015E1 4E0
3.016E1 6E0
3.017E1 8E0
3.018E1 3E0
3.019E1 2E0
3.02E1 1E0
3.021E1 1E0
3.022E1 4E0
3.023E1 1E0
3.024E1 3E0
3.025E1 2E0
3.026E1 3E0
3.027E1 2E0
3.028E1 3E0
3.029E1 4E0
3.03E1 1E0
3.031E1 5E0
3.032E1 3E0
3.033E1 4E0
3.034E1 3E0
3.035E1 6E0
3.036E1 3E0
3.037E1 4E0
3.038E1 3E0
3.039E1 3E0
3.04E1 2E0
3.041E1 6E0
3.042E1 4E0
3.043E1 5E0
3.044E1 1E0
3.045E1 3E0
3.046E1 4E0
3.047E1 3E0
3.048E1 4E0
3.049E1 3E0
3.05E1 3E0
3.051E1 5E0
3.052E1 1E0
3.053E1 3E0
3.054E1 2E0
3.055E1 3E0
3.056E1 1E0
3.057E1 3E0
3.058E1 3E0
3.059E1 3E0
3.06E1 5E0
3.061E1 1E0
3.062E1 2E0
3.063E1 1E0
3.064E1 3E0
3.065E1 4E0
3.066E1 3E0
3.067E1 1E0
3.068E1 4E0
3.069E1 1E0
3.07E1 2E0
3.071E1 3E0
3.072E1 1E0
3.073E1 1E0
3.074E1 3E0
3.075E1 1E0
3.076E1 1E0
3.077E1 3E0
3.078E1 2E0
3.079E1 4E0
3.08E1 3E0
3.081E1 3E0
3.082E1 1E0
3.083E1 5E0
3.084E1 2E0
3.085E1 3E0
3.086E1 2E0
3.087E1 2E0
3.088E1 1E0
3.089E1 1E0
3.09E1 5E0
3.091E1 3E0
3.092E1 3E0
3.093E1 1E0
3.094E1 1E0
3.095E1 4E0
3.096E1 4E0
3.097E1 3E0
3.098E1 1E0
3.099E1 3E0
3.1E1 2E0
3.101E1 6E0
3.102E1 3E0
3.103E1 2E0
3.104E1 1E0
3.105E1 1E0
3.106E1 1E0
3.107E1 4E0
3.108E1 4E0
3.109E1 1E0
3.11E1 1E0
3.111E1 4E0
3.112E1 2E0
3.113E1 2E0
3.114E1 3E0
3.115E1 2E0
3.116E1 3E0
3.117E1 1E0
3.118E1 3E0
3.119E1 4E0
3.12E1 6E0
3.121E1 1E0
3.122E1 1E0
3.123E1 3E0
3.124E1 3E0
3.125E1 2E0
3.126E1 1E0
3.127E1 5E0
3.128E1 4E0
3.129E1 4E0
3.13E1 4E0
3.131E1 3E0
3.132E1 2E0
3.133E1 1E0
3.134E1 4E0
3.135E1 1E0
3.136E1 6E0
3.137E1 4E0
3.138E1 3E0
3.139E1 3E0
3.14E1 2E0
3.141E1 4E0
3.142E1 4E0
3.143E1 2E0
3.144E1 1E0
3.145E1 2E0
3.146E1 2E0
3.147E1 4E0
3.148E1 3E0
3.149E1 4E0
3.15E1 2E0
3.151E1 1E0
3.152E1 5E0
3.153E1 5E0
3.154E1 2E0
3.155E1 5E0
3.156E1 3E0
3.157E1 4E0
3.158E1 4E0
3.159E1 1E0
3.16E1 3E0
3.161E1 7E0
3.162E1 3E0
3.163E1 2E0
3.164E1 2E0
3.165E1 2E0
3.166E1 7E0
3.167E1 2E0
3.168E1 1E0
3.169E1 2E0
3.17E1 2E0
3.171E1 4E0
3.172E1 1E0
3.173E1 6E0
3.174E1 5E0
3.175E1 3E0
3.176E1 3E0
3.177E1 5E0
3.178E1 5E0
3.179E1 6E0
3.18E1 6E0
3.181E1 5E0
3.182E1 4E0
3.183E1 3E0
3.184E1 5E0
3.185E1 4E0
3.186E1 1E0
3.187E1 5E0
3.188E1 3E0
3.189E1 3E0
3.19E1 4E0
3.191E1 1E0
3.192E1 3E0
3.193E1 1E0
3.194E1 5E0
3.195E1 1E0
3.196E1 5E0
3.197E1 5E0
3.198E1 5E0
3.199E1 5E0
3.2E1 7E0
3.201E1 4E0
3.202E1 2E0
3.203E1 1E0
3.204E1 2E0
3.205E1 3E0
3.206E1 6E0
3.207E1 7E0
3.208E1 2E0
3.209E1 2E0
3.21E1 5E0
3.211E1 3E0
3.212E1 1E0
3.213E1 1E0
3.214E1 1E0
3.215E1 4E0
3.216E1 6E0
3.217E1 3E0
3.218E1 4E0
3.219E1 3E0
3.22E1 3E0
3.221E1 1E0
3.222E1 7E0
3.223E1 4E0
3.224E1 5E0
3.225E1 6E0
3.226E1 2E0
3.227E1 4E0
3.228E1 2E0
3.229E1 3E0
3.23E1 7E0
3.231E1 2E0
3.232E1 3E0
3.233E1 5E0
3.234E1 4E0
3.235E1 5E0
3.236E1 9E0
3.237E1 1E0
3.238E1 8E0
3.239E1 4E0
3.24E1 5E0
3.241E1 5E0
3.242E1 3E0
3.243E1 5E0
3.244E1 7E0
3.245E1 2E0
3.246E1 5E0
3.247E1 3E0
3.248E1 4E0
3.249E1 7E0
3.25E1 4E0
3.251E1 5E0
3.252E1 4E0
3.253E1 3E0
3.254E1 3E0
3.255E1 3E0
3.256E1 7E0
3.257E1 2E0
3.258E1 3E0
3.259E1 6E0
3.26E1 7E0
3.261E1 5E0
3.262E1 3E0
3.263E1 7E0
3.264E1 4E0
3.265E1 2E0
3.266E1 7E0
3.267E1 3E0
3.268E1 3E0
3.269E1 2E0
3.27E1 2E0
3.271E1 2E0
3.272E1 1E0
3.273E1 3E0
3.274E1 2E0
3.275E1 3E0
3.276E1 2E0
3.277E1 7E0
3.278E1 2E0
3.279E1 5E0
3.28E1 4E0
3.281E1 5E0
3.282E1 6E0
3.283E1 4E0
3.284E1 3E0
3.285E1 3E0
3.286E1 2E0
3.287E1 4E0
3.288E1 4E0
3.289E1 4E0
3.29E1 3E0
3.291E1 4E0
3.292E1 1E0
3.293E1 4E0
3.294E1 1E0
3.295E1 6E0
3.296E1 4E0
3.297E1 2E0
3.298E1 5E0
3.299E1 1E0
3.3E1 4E0
3.301E1 2E0
3.302E1 1E0
3.303E1 1E0
3.304E1 4E0
3.305E1 3E0
3.306E1 2E0
3.307E1 1E0
3.308E1 3E0
3.309E1 2E0
3.31E1 5E0
3.311E1 3E0
3.312E1 2E0
3.313E1 2E0
3.314E1 1E0
3.315E1 1E0
3.316E1 2E0
3.317E1 3E0
3.318E1 1E0
3.319E1 3E0
3.32E1 2E0
3.321E1 1E0
3.322E1 1E0
3.323E1 1E0
3.324E1 2E0
3.325E1 3E0
3.326E1 3E0
3.327E1 7E0
3.328E1 1E0
3.329E1 3E0
3.33E1 3E0
3.331E1 4E0
3.332E1 1E0
3.333E1 2E0
3.334E1 1E0
3.335E1 2E0
3.336E1 4E0
3.337E1 2E0
3.338E1 1E0
3.339E1 3E0
3.34E1 5E0
3.341E1 3E0
3.342E1 3E0
3.343E1 5E0
3.344E1 2E0
3.345E1 4E0
3.346E1 3E0
3.347E1 3E0
3.348E1 4E0
3.349E1 3E0
3.35E1 1E0
3.351E1 1E0
3.352E1 2E0
3.353E1 2E0
3.354E1 2E0
3.355E1 2E0
3.356E1 2E0
3.357E1 1E0
3.358E1 3E0
3.359E1 4E0
3.36E1 2E0
3.361E1 1E0
3.362E1 1E0
3.363E1 2E0
3.364E1 5E0
3.365E1 3E0
3.366E1 3E0
3.367E1 2E0
3.368E1 1E0
3.369E1 1E0
3.37E1 1E0
3.371E1 4E0
3.372E1 1E0
3.373E1 1E0
3.374E1 3E0
3.375E1 1E0
3.376E1 1E0
3.377E1 2E0
3.378E1 2E0
3.379E1 1E0
3.38E1 3E0
3.381E1 2E0
3.382E1 1E0
3.383E1 1E0
3.384E1 4E0
3.385E1 3E0
3.386E1 2E0
3.387E1 1E0
3.388E1 2E0
3.389E1 5E0
3.39E1 1E0
3.391E1 1E0
3.392E1 1E0
3.393E1 1E0
3.394E1 1E0
3.395E1 2E0
3.396E1 1E0
3.397E1 1E0
3.398E1 2E0
3.399E1 2E0
3.4E1 2E0
3.401E1 4E0
3.402E1 4E0
3.403E1 1E0
3.404E1 4E0
3.405E1 2E0
3.406E1 1E0
3.407E1 2E0
3.408E1 1E0
3.409E1 1E0
3.41E1 2E0
3.411E1 2E0
3.412E1 3E0
3.413E1 2E0
3.414E1 3E0
3.415E1 1E0
3.416E1 1E0
3.417E1 1E0
3.418E1 2E0
3.419E1 1E0
3.42E1 1E0
3.421E1 1E0
3.422E1 2E0
3.423E1 1E0
3.424E1 3E0
3.425E1 1E0
3.426E1 1E0
3.427E1 1E0
3.428E1 1E0
3.429E1 1E0
3.43E1 5E0
3.431E1 2E0
3.432E1 3E0
3.433E1 3E0
3.434E1 2E0
3.435E1 4E0
3.436E1 1E0
3.437E1 2E0
3.438E1 2E0
3.439E1 2E0
3.44E1 1E0
3.441E1 1E0
3.442E1 4E0
3.443E1 2E0
3.444E1 1E0
3.445E1 3E0
3.446E1 4E0
3.447E1 4E0
3.448E1 2E0
3.449E1 1E0
3.45E1 1E0
3.451E1 2E0
3.452E1 2E0
3.453E1 2E0
3.454E1 1E0
3.455E1 1E0
3.456E1 1E0
3.457E1 1E0
3.458E1 1E0
3.459E1 1E0
3.46E1 2E0
3.461E1 3E0
3.462E1 1E0
3.463E1 3E0
3.464E1 2E0
3.465E1 1E0
3.466E1 1E0
3.467E1 1E0
3.468E1 1E0
3.469E1 1E0
3.47E1 1E0
3.471E1 1E0
3.472E1 1E0
3.473E1 5E0
3.474E1 3E0
3.475E1 2E0
3.476E1 1E0
3.477E1 1E0
3.478E1 5E0
3.479E1 3E0
3.48E1 1E0
3.481E1 2E0
3.482E1 2E0
3.483E1 1E0
3.484E1 1E0
3.485E1 4E0
3.486E1 3E0
3.487E1 3E0
3.488E1 1E0
3.489E1 1E0
3.49E1 4E0
3.491E1 2E0
3.492E1 1E0
3.493E1 2E0
3.494E1 1E0
3.495E1 1E0
3.496E1 1E0
3.497E1 1E0
3.498E1 3E0
3.499E1 1E0
3.5E1 4E0
3.501E1 3E0
3.502E1 2E0
3.503E1 1E0
3.504E1 1E0
3.505E1 1E0
3.506E1 4E0
3.507E1 1E0
3.508E1 1E0
3.509E1 1E0
3.51E1 1E0
3.511E1 1E0
3.512E1 2E0
3.513E1 1E0
3.514E1 1E0
3.515E1 4E0
3.516E1 1E0
3.517E1 1E0
3.518E1 1E0
3.519E1 1E0
3.52E1 1E0
3.521E1 4E0
3.522E1 1E0
3.523E1 1E0
3.524E1 1E0
3.525E1 2E0
3.526E1 1E0
3.527E1 1E0
3.528E1 1E0
3.529E1 1E0
3.53E1 3E0
3.531E1 1E0
3.532E1 2E0
3.533E1 1E0
3.534E1 1E0
3.535E1 1E0
3.536E1 1E0
3.537E1 3E0
3.538E1 1E0
3.539E1 2E0
3.54E1 1E0
3.541E1 2E0
3.542E1 3E0
3.543E1 2E0
3.544E1 1E0
3.545E1 1E0
3.546E1 2E0
3.547E1 1E0
3.548E1 3E0
3.549E1 1E0
3.55E1 1E0
3.551E1 1E0
3.552E1 1E0
3.553E1 1E0
3.554E1 1E0
3.555E1 2E0
3.556E1 1E0
3.557E1 3E0
3.558E1 1E0
3.559E1 3E0
3.56E1 1E0
3.561E1 1E0
3.562E1 3E0
3.563E1 4E0
3.564E1 3E0
3.565E1 2E0
3.566E1 1E0
3.567E1 1E0
3.568E1 2E0
3.569E1 2E0
3.57E1 2E0
3.571E1 3E0
3.572E1 2E0
3.573E1 2E0
3.574E1 1E0
3.575E1 1E0
3.576E1 2E0
3.577E1 2E0
3.578E1 1E0
3.579E1 4E0
3.58E1 1E0
3.581E1 1E0
3.582E1 3E0
3.583E1 2E0
3.584E1 4E0
3.585E1 1E0
3.586E1 1E0
3.587E1 1E0
3.588E1 4E0
3.589E1 1E0
3.59E1 1E0
3.591E1 2E0
3.592E1 1E0
3.593E1 1E0
3.594E1 1E0
3.595E1 2E0
3.596E1 1E0
3.597E1 3E0
3.598E1 2E0
3.599E1 3E0
3.6E1 2E0
3.601E1 1E0
3.602E1 4E0
3.603E1 1E0
3.604E1 1E0
3.605E1 2E0
3.606E1 2E0
3.607E1 1E0
3.608E1 1E0
3.609E1 3E0
3.61E1 1E0
3.611E1 1E0
3.612E1 1E0
3.613E1 1E0
3.614E1 1E0
3.615E1 1E0
3.616E1 2E0
3.617E1 1E0
3.618E1 3E0
3.619E1 1E0
3.62E1 1E0
3.621E1 1E0
3.622E1 3E0
3.623E1 1E0
3.624E1 1E0
3.625E1 1E0
3.626E1 2E0
3.627E1 2E0
3.628E1 1E0
3.629E1 3E0
3.63E1 1E0
3.631E1 2E0
3.632E1 1E0
3.633E1 4E0
3.634E1 3E0
3.635E1 2E0
3.636E1 2E0
3.637E1 1E0
3.638E1 4E0
3.639E1 1E0
3.64E1 6E0
3.641E1 1E0
3.642E1 2E0
3.643E1 1E0
3.644E1 1E0
3.645E1 1E0
3.646E1 1E0
3.647E1 1E0
3.648E1 1E0
3.649E1 4E0
3.65E1 2E0
3.651E1 1E0
3.652E1 2E0
3.653E1 1E0
3.654E1 4E0
3.655E1 1E0
3.656E1 1E0
3.657E1 1E0
3.658E1 1E0
3.659E1 1E0
3.66E1 3E0
3.661E1 1E0
3.662E1 1E0
3.663E1 2E0
3.664E1 1E0
3.665E1 1E0
3.666E1 2E0
3.667E1 2E0
3.668E1 1E0
3.669E1 1E0
3.67E1 1E0
3.671E1 2E0
3.672E1 1E0
3.673E1 1E0
3.674E1 1E0
3.675E1 3E0
3.676E1 1E0
3.677E1 1E0
3.678E1 1E0
3.679E1 1E0
3.68E1 1E0
3.681E1 2E0
3.682E1 2E0
3.683E1 1E0
3.684E1 1E0
3.685E1 1E0
3.686E1 1E0
3.687E1 1E0
3.688E1 2E0
3.689E1 1E0
3.69E1 2E0
3.691E1 1E0
3.692E1 1E0
3.693E1 1E0
3.694E1 1E0
3.695E1 1E0
3.696E1 1E0
3.697E1 1E0
3.698E1 2E0
3.699E1 1E0
3.7E1 1E0
3.701E1 2E0
3.702E1 2E0
3.703E1 1E0
3.704E1 1E0
3.705E1 1E0
3.706E1 3E0
3.707E1 2E0
3.708E1 1E0
3.709E1 1E0
3.71E1 1E0
3.711E1 2E0
3.712E1 2E0
3.713E1 1E0
3.714E1 3E0
3.715E1 1E0
3.716E1 1E0
3.717E1 1E0
3.718E1 2E0
3.719E1 2E0
3.72E1 1E0
3.721E1 1E0
3.722E1 1E0
3.723E1 1E0
3.724E1 3E0
3.725E1 1E0
3.726E1 2E0
3.727E1 1E0
3.728E1 1E0
3.729E1 1E0
3.73E1 1E0
3.731E1 2E0
3.732E1 1E0
3.733E1 1E0
3.734E1 2E0
3.735E1 1E0
3.736E1 2E0
3.737E1 1E0
3.738E1 1E0
3.739E1 1E0
3.74E1 2E0
3.741E1 1E0
3.742E1 1E0
3.743E1 2E0
3.744E1 1E0
3.745E1 1E0
3.746E1 1E0
3.747E1 1E0
3.748E1 1E0
3.749E1 4E0
3.75E1 1E0
3.751E1 1E0
3.752E1 2E0
3.753E1 3E0
3.754E1 1E0
3.755E1 2E0
3.756E1 2E0
3.757E1 1E0
3.758E1 1E0
3.759E1 2E0
3.76E1 1E0
3.761E1 1E0
3.762E1 1E0
3.763E1 1E0
3.764E1 2E0
3.765E1 1E0
3.766E1 2E0
3.767E1 1E0
3.768E1 1E0
3.769E1 4E0
3.77E1 1E0
3.771E1 1E0
3.772E1 1E0
3.773E1 1E0
3.774E1 1E0
3.775E1 1E0
3.776E1 1E0
3.777E1 1E0
3.778E1 2E0
3.779E1 2E0
3.78E1 2E0
3.781E1 1E0
3.782E1 1E0
3.783E1 1E0
3.784E1 2E0
3.785E1 1E0
3.786E1 2E0
3.787E1 1E0
3.788E1 3E0
3.789E1 1E0
3.79E1 2E0
3.791E1 1E0
3.792E1 3E0
3.793E1 1E0
3.794E1 1E0
3.795E1 1E0
3.796E1 1E0
3.797E1 1E0
3.798E1 1E0
3.799E1 1E0
3.8E1 3E0
3.801E1 1E0
3.802E1 1E0
3.803E1 2E0
3.804E1 2E0
3.805E1 2E0
3.806E1 1E0
3.807E1 1E0
3.808E1 1E0
3.809E1 1E0
3.81E1 1E0
3.811E1 1E0
3.812E1 1E0
3.813E1 1E0
3.814E1 2E0
3.815E1 1E0
3.816E1 1E0
3.817E1 1E0
3.818E1 1E0
3.819E1 1E0
3.82E1 3E0
3.821E1 3E0
3.822E1 2E0
3.823E1 1E0
3.824E1 2E0
3.825E1 1E0
3.826E1 1E0
3.827E1 2E0
3.828E1 1E0
3.829E1 1E0
3.83E1 2E0
3.831E1 1E0
3.832E1 2E0
3.833E1 2E0
3.834E1 2E0
3.835E1 1E0
3.836E1 1E0
3.837E1 1E0
3.838E1 1E0
3.839E1 1E0
3.84E1 1E0
3.841E1 1E0
3.842E1 3E0
3.843E1 1E0
3.844E1 1E0
3.845E1 2E0
3.846E1 2E0
3.847E1 3E0
3.848E1 3E0
3.849E1 2E0
3.85E1 1E0
3.851E1 1E0
3.852E1 1E0
3.853E1 3E0
3.854E1 1E0
3.855E1 1E0
3.856E1 1E0
3.857E1 1E0
3.858E1 1E0
3.859E1 1E0
3.86E1 1E0
3.861E1 2E0
3.862E1 3E0
3.863E1 1E0
3.864E1 1E0
3.865E1 2E0
3.866E1 1E0
3.867E1 1E0
3.868E1 1E0
3.869E1 1E0
3.87E1 1E0
3.871E1 1E0
3.872E1 2E0
3.873E1 1E0
3.874E1 1E0
3.875E1 1E0
3.876E1 1E0
3.877E1 1E0
3.878E1 2E0
3.879E1 1E0
3.88E1 3E0
3.881E1 1E0
3.882E1 2E0
3.883E1 5E0
3.884E1 1E0
3.885E1 1E0
3.886E1 2E0
3.887E1 1E0
3.888E1 4E0
3.889E1 1E0
3.89E1 1E0
3.891E1 1E0
3.892E1 1E0
3.893E1 1E0
3.894E1 2E0
3.895E1 3E0
3.896E1 1E0
3.897E1 2E0
3.898E1 1E0
3.899E1 1E0
3.9E1 1E0
3.901E1 1E0
3.902E1 1E0
3.903E1 3E0
3.904E1 1E0
3.905E1 2E0
3.906E1 1E0
3.907E1 1E0
3.908E1 1E0
3.909E1 1E0
3.91E1 1E0
3.911E1 1E0
3.912E1 2E0
3.913E1 1E0
3.914E1 4E0
3.915E1 1E0
3.916E1 1E0
3.917E1 3E0
3.918E1 1E0
3.919E1 1E0
3.92E1 1E0
3.921E1 2E0
3.922E1 1E0
3.923E1 2E0
3.924E1 1E0
3.925E1 2E0
3.926E1 1E0
3.927E1 1E0
3.928E1 1E0
3.929E1 1E0
3.93E1 3E0
3.931E1 1E0
3.932E1 2E0
3.933E1 1E0
3.934E1 1E0
3.935E1 3E0
3.936E1 1E0
3.937E1 1E0
3.938E1 1E0
3.939E1 3E0
3.94E1 1E0
3.941E1 1E0
3.942E1 1E0
3.943E1 2E0
3.944E1 1E0
3.945E1 2E0
3.946E1 2E0
3.947E1 1E0
3.948E1 3E0
3.949E1 1E0
3.95E1 2E0
3.951E1 1E0
3.952E1 2E0
3.953E1 4E0
3.954E1 1E0
3.955E1 1E0
3.956E1 1E0
3.957E1 1E0
3.958E1 3E0
3.959E1 3E0
3.96E1 2E0
3.961E1 2E0
3.962E1 1E0
3.963E1 4E0
3.964E1 1E0
3.965E1 1E0
3.966E1 3E0
3.967E1 2E0
3.968E1 1E0
3.969E1 1E0
3.97E1 1E0
3.971E1 1E0
3.972E1 1E0
3.973E1 1E0
3.974E1 1E0
3.975E1 3E0
3.976E1 4E0
3.977E1 1E0
3.978E1 1E0
3.979E1 1E0
3.98E1 2E0
3.981E1 1E0
3.982E1 1E0
3.983E1 1E0
3.984E1 4E0
3.985E1 3E0
3.986E1 1E0
3.987E1 1E0
3.988E1 2E0
3.989E1 1E0
3.99E1 1E0
3.991E1 2E0
3.992E1 3E0
3.993E1 1E0
3.994E1 1E0
3.995E1 1E0
3.996E1 2E0
3.997E1 1E0
3.998E1 1E0
3.999E1 1E0
4E1 1E0
4.001E1 1E0
4.002E1 3E0
4.003E1 2E0
4.004E1 1E0
4.005E1 1E0
4.006E1 1E0
4.007E1 4E0
4.008E1 1E0
4.009E1 1E0
4.01E1 1E0
4.011E1 1E0
4.012E1 1E0
4.013E1 2E0
4.014E1 1E0
4.015E1 1E0
4.016E1 1E0
4.017E1 2E0
4.018E1 3E0
4.019E1 2E0
4.02E1 1E0
4.021E1 1E0
4.022E1 2E0
4.023E1 1E0
4.024E1 1E0
4.025E1 1E0
4.026E1 1E0
4.027E1 1E0
4.028E1 2E0
4.029E1 1E0
4.03E1 3E0
4.031E1 1E0
4.032E1 1E0
4.033E1 1E0
4.034E1 2E0
4.035E1 2E0
4.036E1 2E0
4.037E1 1E0
4.038E1 1E0
4.039E1 1E0
4.04E1 1E0
4.041E1 2E0
4.042E1 1E0
4.043E1 1E0
4.044E1 1E0
4.045E1 1E0
4.046E1 2E0
4.047E1 1E0
4.048E1 3E0
4.049E1 3E0
4.05E1 1E0
4.051E1 1E0
4.052E1 1E0
4.053E1 1E0
4.054E1 1E0
4.055E1 2E0
4.056E1 1E0
4.057E1 1E0
4.058E1 1E0
4.059E1 1E0
4.06E1 2E0
4.061E1 2E0
4.062E1 1E0
4.063E1 1E0
4.064E1 2E0
4.065E1 1E0
4.066E1 1E0
4.067E1 1E0
4.068E1 1E0
4.069E1 1E0
4.07E1 2E0
4.071E1 1E0
4.072E1 1E0
4.073E1 1E0
4.074E1 1E0
4.075E1 2E0
4.076E1 3E0
4.077E1 1E0
4.078E1 1E0
4.079E1 1E0
4.08E1 1E0
4.081E1 2E0
4.082E1 1E0
4.083E1 2E0
4.084E1 2E0
4.085E1 2E0
4.086E1 2E0
4.087E1 3E0
4.088E1 1E0
4.089E1 1E0
4.09E1 1E0
4.091E1 1E0
4.092E1 1E0
4.093E1 2E0
4.094E1 1E0
4.095E1 1E0
4.096E1 1E0
4.097E1 2E0
4.098E1 3E0
4.099E1 1E0
4.1E1 4E0
4.101E1 3E0
4.102E1 3E0
4.103E1 3E0
4.104E1 1E0
4.105E1 1E0
4.106E1 2E0
4.107E1 1E0
4.108E1 1E0
4.109E1 3E0
4.11E1 1E0
4.111E1 2E0
4.112E1 1E0
4.113E1 1E0
4.114E1 3E0
4.115E1 1E0
4.116E1 3E0
4.117E1 1E0
4.118E1 1E0
4.119E1 1E0
4.12E1 2E0
4.121E1 1E0
4.122E1 2E0
4.123E1 2E0
4.124E1 1E0
4.125E1 1E0
4.126E1 2E0
4.127E1 2E0
4.128E1 4E0
4.129E1 1E0
4.13E1 3E0
4.131E1 1E0
4.132E1 1E0
4.133E1 3E0
4.134E1 1E0
4.135E1 2E0
4.136E1 1E0
4.137E1 1E0
4.138E1 2E0
4.139E1 1E0
4.14E1 1E0
4.141E1 3E0
4.142E1 1E0
4.143E1 1E0
4.144E1 1E0
4.145E1 1E0
4.146E1 3E0
4.147E1 3E0
4.148E1 1E0
4.149E1 1E0
4.15E1 2E0
4.151E1 1E0
4.152E1 2E0
4.153E1 2E0
4.154E1 2E0
4.155E1 1E0
4.156E1 1E0
4.157E1 1E0
4.158E1 1E0
4.159E1 1E0
4.16E1 2E0
4.161E1 1E0
4.162E1 1E0
4.163E1 2E0
4.164E1 1E0
4.165E1 4E0
4.166E1 2E0
4.167E1 1E0
4.168E1 1E0
4.169E1 1E0
4.17E1 1E0
4.171E1 4E0
4.172E1 3E0
4.173E1 2E0
4.174E1 1E0
4.175E1 1E0
4.176E1 1E0
4.177E1 2E0
4.178E1 1E0
4.179E1 1E0
4.18E1 1E0
4.181E1 1E0
4.182E1 1E0
4.183E1 2E0
4.184E1 1E0
4.185E1 2E0
4.186E1 3E0
4.187E1 1E0
4.188E1 1E0
4.189E1 2E0
4.19E1 1E0
4.191E1 1E0
4.192E1 2E0
4.193E1 1E0
4.194E1 2E0
4.195E1 3E0
4.196E1 2E0
4.197E1 3E0
4.198E1 2E0
4.199E1 2E0
4.2E1 1E0
4.201E1 1E0
4.202E1 1E0
4.203E1 1E0
4.204E1 3E0
4.205E1 1E0
4.206E1 3E0
4.207E1 1E0
4.208E1 3E0
4.209E1 8E0
4.21E1 5E0
4.211E1 4E0
4.212E1 5E0
4.213E1 1E0
4.214E1 3E0
4.215E1 2E0
4.216E1 1E0
4.217E1 2E0
4.218E1 2E0
4.219E1 1E0
4.22E1 1E0
4.221E1 1E0
4.222E1 1E0
4.223E1 1E0
4.224E1 1E0
4.225E1 3E0
4.226E1 3E0
4.227E1 1E0
4.228E1 3E0
4.229E1 2E0
4.23E1 1E0
4.231E1 1E0
4.232E1 3E0
4.233E1 1E0
4.234E1 2E0
4.235E1 1E0
4.236E1 1E0
4.237E1 2E0
4.238E1 1E0
4.239E1 3E0
4.24E1 3E0
4.241E1 3E0
4.242E1 1E0
4.243E1 1E0
4.244E1 1E0
4.245E1 2E0
4.246E1 1E0
4.247E1 1E0
4.248E1 1E0
4.249E1 1E0
4.25E1 2E0
4.251E1 2E0
4.252E1 2E0
4.253E1 4E0
4.254E1 4E0
4.255E1 3E0
4.256E1 1E0
4.257E1 2E0
4.258E1 2E0
4.259E1 3E0
4.26E1 2E0
4.261E1 1E0
4.262E1 1E0
4.263E1 2E0
4.264E1 1E0
4.265E1 3E0
4.266E1 2E0
4.267E1 1E0
4.268E1 1E0
4.269E1 1E0
4.27E1 1E0
4.271E1 3E0
4.272E1 2E0
4.273E1 2E0
4.274E1 3E0
4.275E1 1E0
4.276E1 2E0
4.277E1 2E0
4.278E1 1E0
4.279E1 1E0
4.28E1 1E0
4.281E1 3E0
4.282E1 1E0
4.283E1 3E0
4.284E1 2E0
4.285E1 2E0
4.286E1 3E0
4.287E1 3E0
4.288E1 2E0
4.289E1 1E0
4.29E1 1E0
4.291E1 2E0
4.292E1 1E0
4.293E1 1E0
4.294E1 2E0
4.295E1 3E0
4.296E1 4E0
4.297E1 3E0
4.298E1 4E0
4.299E1 1E0
4.3E1 2E0
4.301E1 1E0
4.302E1 1E0
4.303E1 3E0
4.304E1 2E0
4.305E1 2E0
4.306E1 3E0
4.307E1 3E0
4.308E1 2E0
4.309E1 1E0
4.31E1 1E0
4.311E1 1E0
4.312E1 1E0
4.313E1 2E0
4.314E1 2E0
4.315E1 1E0
4.316E1 5E0
4.317E1 3E0
4.318E1 2E0
4.319E1 2E0
4.32E1 3E0
4.321E1 1E0
4.322E1 1E0
4.323E1 6E0
4.324E1 4E0
4.325E1 3E0
4.326E1 6E0
4.327E1 4E0
4.328E1 1E0
4.329E1 2E0
4.33E1 7E0
4.331E1 6E0
4.332E1 6E0
4.333E1 6E0
4.334E1 4E0
4.335E1 8E0
4.336E1 2E0
4.337E1 6E0
4.338E1 8E0
4.339E1 5E0
4.34E1 3E0
4.341E1 5E0
4.342E1 7E0
4.343E1 4E0
4.344E1 3E0
4.345E1 4E0
4.346E1 1E0
4.347E1 3E0
4.348E1 1E0
4.349E1 3E0
[...]
6.327E1 1E0
6.328E1 1E0
6.329E1 1E0
6.33E1 2E0
6.331E1 1E0
6.332E1 1E0
6.333E1 1E0
6.334E1 2E0
6.335E1 2E0
6.336E1 1E0
6.337E1 1E0
6.338E1 1E0
6.339E1 1E0
6.34E1 1E0
6.341E1 1E0
6.342E1 1E0
6.343E1 1E0
6.344E1 1E0
6.345E1 1E0
6.346E1 1E0
6.347E1 1E0
6.348E1 1E0
6.349E1 1E0
6.35E1 2E0
6.351E1 1E0
6.352E1 1E0
6.353E1 1E0
6.354E1 1E0
6.355E1 2E0
6.356E1 3E0
6.357E1 1E0
6.358E1 1E0
6.359E1 1E0
6.36E1 1E0
6.361E1 2E0
6.362E1 2E0
6.363E1 1E0
6.364E1 2E0
6.365E1 1E0
6.366E1 1E0
6.367E1 1E0
6.368E1 1E0
6.369E1 1E0
6.37E1 4E0
6.371E1 1E0
6.372E1 1E0
6.373E1 1E0
6.374E1 1E0
6.375E1 1E0
6.376E1 1E0
6.377E1 1E0
6.378E1 1E0
6.379E1 1E0
6.38E1 1E0
6.381E1 4E0
6.382E1 2E0
6.383E1 1E0
6.384E1 3E0
6.385E1 1E0
6.386E1 1E0
6.387E1 1E0
6.388E1 1E0
6.389E1 1E0
6.39E1 1E0
6.391E1 1E0
6.392E1 3E0
6.393E1 1E0
6.394E1 2E0
6.395E1 2E0
6.396E1 2E0
6.397E1 1E0
6.398E1 1E0
6.399E1 4E0
6.4E1 2E0
6.401E1 1E0
6.402E1 2E0
6.403E1 3E0
6.404E1 2E0
6.405E1 1E0
6.406E1 2E0
6.407E1 2E0
6.408E1 1E0
6.409E1 2E0
6.41E1 2E0
6.411E1 1E0
6.412E1 1E0
6.413E1 1E0
6.414E1 2E0
6.415E1 2E0
6.416E1 2E0
6.417E1 1E0
6.418E1 1E0
6.419E1 3E0
6.42E1 1E0
6.421E1 1E0
6.422E1 1E0
6.423E1 1E0
6.424E1 1E0
6.425E1 1E0
6.426E1 1E0
6.427E1 3E0
6.428E1 1E0
6.429E1 1E0
6.43E1 2E0
6.431E1 3E0
6.432E1 1E0
6.433E1 1E0
6.434E1 1E0
6.435E1 1E0
6.436E1 1E0
6.437E1 3E0
6.438E1 1E0
6.439E1 1E0
6.44E1 1E0
6.441E1 1E0
6.442E1 1E0
6.443E1 1E0
6.444E1 2E0
6.445E1 2E0
6.446E1 1E0
6.447E1 1E0
6.448E1 1E0
6.449E1 1E0
6.45E1 1E0
6.451E1 3E0
6.452E1 1E0
6.453E1 1E0
6.454E1 1E0
6.455E1 1E0
6.456E1 1E0
6.457E1 1E0
6.458E1 1E0
6.459E1 2E0
6.46E1 1E0
6.461E1 1E0
6.462E1 1E0
6.463E1 1E0
6.464E1 1E0
6.465E1 2E0
6.466E1 1E0
6.467E1 1E0
6.468E1 1E0
6.469E1 1E0
6.47E1 1E0
6.471E1 1E0
6.472E1 1E0
6.473E1 1E0
6.474E1 1E0
6.475E1 2E0
6.476E1 2E0
6.477E1 1E0
6.478E1 2E0
6.479E1 1E0
6.48E1 1E0
6.481E1 1E0
6.482E1 1E0
6.483E1 2E0
6.484E1 1E0
6.485E1 2E0
6.486E1 2E0
6.487E1 1E0
6.488E1 1E0
6.489E1 1E0
6.49E1 1E0
6.491E1 1E0
6.492E1 2E0
6.493E1 1E0
6.494E1 1E0
6.495E1 3E0
6.496E1 1E0
6.497E1 1E0
6.498E1 2E0
6.499E1 1E0
6.5E1 1E0
6.501E1 1E0
6.502E1 1E0
6.503E1 2E0
6.504E1 1E0
6.505E1 1E0
6.506E1 1E0
6.507E1 1E0
6.508E1 2E0
6.509E1 1E0
6.51E1 3E0
6.511E1 1E0
6.512E1 1E0
6.513E1 3E0
6.514E1 1E0
6.515E1 3E0
6.516E1 1E0
6.517E1 1E0
6.518E1 1E0
6.519E1 2E0
6.52E1 1E0
6.521E1 1E0
6.522E1 1E0
6.523E1 1E0
6.524E1 1E0
6.525E1 1E0
6.526E1 1E0
6.527E1 2E0
6.528E1 2E0
6.529E1 1E0
6.53E1 1E0
6.531E1 2E0
6.532E1 2E0
6.533E1 1E0
6.534E1 1E0
6.535E1 1E0
6.536E1 3E0
6.537E1 1E0
6.538E1 1E0
6.539E1 1E0
6.54E1 1E0
6.541E1 1E0
6.542E1 1E0
6.543E1 4E0
6.544E1 2E0
6.545E1 3E0
6.546E1 1E0
6.547E1 1E0
6.548E1 1E0
6.549E1 1E0
6.55E1 1E0
6.551E1 1E0
6.552E1 3E0
6.553E1 1E0
6.554E1 1E0
6.555E1 3E0
6.556E1 1E0
6.557E1 1E0
6.558E1 2E0
6.559E1 2E0
6.56E1 1E0
6.561E1 1E0
6.562E1 1E0
6.563E1 1E0
6.564E1 2E0
6.565E1 1E0
6.566E1 1E0
6.567E1 1E0
6.568E1 1E0
6.569E1 1E0
6.57E1 3E0
6.571E1 1E0
6.572E1 2E0
6.573E1 3E0
6.574E1 1E0
6.575E1 1E0
6.576E1 1E0
6.577E1 1E0
6.578E1 1E0
6.579E1 2E0
6.58E1 1E0
6.581E1 1E0
6.582E1 1E0
6.583E1 1E0
6.584E1 1E0
6.585E1 1E0
6.586E1 1E0
6.587E1 1E0
6.588E1 1E0
6.589E1 1E0
6.59E1 2E0
6.591E1 2E0
6.592E1 2E0
6.593E1 1E0
6.594E1 1E0
6.595E1 1E0
6.596E1 1E0
6.597E1 1E0
6.598E1 1E0
6.599E1 1E0
6.6E1 1E0
6.601E1 1E0
6.602E1 1E0
6.603E1 1E0
6.604E1 1E0
6.605E1 1E0
6.606E1 1E0
6.607E1 3E0
6.608E1 1E0
6.609E1 1E0
6.61E1 1E0
6.611E1 1E0
6.612E1 1E0
6.613E1 1E0
6.614E1 1E0
6.615E1 1E0
6.616E1 1E0
6.617E1 1E0
6.618E1 1E0
6.619E1 1E0
6.62E1 1E0
6.621E1 1E0
6.622E1 1E0
6.623E1 1E0
6.624E1 4E0
6.625E1 1E0
6.626E1 1E0
6.627E1 1E0
6.628E1 3E0
6.629E1 1E0
6.63E1 4E0
6.631E1 1E0
6.632E1 2E0
6.633E1 1E0
6.634E1 1E0
6.635E1 1E0
6.636E1 1E0
6.637E1 1E0
6.638E1 1E0
6.639E1 1E0
6.64E1 2E0
6.641E1 1E0
6.642E1 1E0
6.643E1 1E0
6.644E1 2E0
6.645E1 1E0
6.646E1 1E0
6.647E1 2E0
6.648E1 1E0
6.649E1 1E0
6.65E1 1E0
6.651E1 2E0
6.652E1 1E0
6.653E1 1E0
6.654E1 1E0
6.655E1 1E0
6.656E1 1E0
6.657E1 1E0
6.658E1 1E0
6.659E1 1E0
6.66E1 1E0
6.661E1 1E0
6.662E1 1E0
6.663E1 1E0
6.664E1 1E0
6.665E1 1E0
6.666E1 1E0
6.667E1 1E0
6.668E1 1E0
6.669E1 1E0
6.67E1 2E0
6.671E1 1E0
6.672E1 1E0
6.673E1 1E0
6.674E1 1E0
6.675E1 1E0
6.676E1 2E0
6.677E1 2E0
6.678E1 1E0
6.679E1 3E0
6.68E1 2E0
6.681E1 1E0
6.682E1 2E0
6.683E1 1E0
6.684E1 1E0
6.685E1 3E0
6.686E1 2E0
6.687E1 2E0
6.688E1 1E0
6.689E1 1E0
6.69E1 1E0
6.691E1 1E0
6.692E1 1E0
6.693E1 1E0
6.694E1 2E0
6.695E1 2E0
6.696E1 2E0
6.697E1 2E0
6.698E1 3E0
6.699E1 1E0
6.7E1 2E0
6.701E1 2E0
6.702E1 1E0
6.703E1 1E0
6.704E1 1E0
6.705E1 3E0
6.706E1 1E0
6.707E1 1E0
6.708E1 1E0
6.709E1 1E0
6.71E1 3E0
6.711E1 2E0
6.712E1 3E0
6.713E1 1E0
6.714E1 2E0
6.715E1 3E0
6.716E1 3E0
6.717E1 1E0
6.718E1 1E0
6.719E1 1E0
6.72E1 1E0
6.721E1 1E0
6.722E1 1E0
6.723E1 2E0
6.724E1 1E0
6.725E1 1E0
6.726E1 1E0
6.727E1 1E0
6.728E1 1E0
6.729E1 1E0
6.73E1 2E0
6.731E1 1E0
6.732E1 2E0
6.733E1 2E0
6.734E1 1E0
6.735E1 1E0
6.736E1 3E0
6.737E1 2E0
6.738E1 1E0
6.739E1 3E0
6.74E1 1E0
6.741E1 1E0
6.742E1 2E0
6.743E1 1E0
6.744E1 1E0
6.745E1 2E0
6.746E1 1E0
6.747E1 1E0
6.748E1 2E0
6.749E1 1E0
6.75E1 2E0
6.751E1 1E0
6.752E1 2E0
6.753E1 5E0
6.754E1 1E0
6.755E1 1E0
6.756E1 1E0
6.757E1 1E0
6.758E1 1E0
6.759E1 1E0
6.76E1 1E0
6.761E1 1E0
6.762E1 1E0
6.763E1 5E0
6.764E1 2E0
6.765E1 2E0
6.766E1 1E0
6.767E1 1E0
6.768E1 1E0
6.769E1 1E0
6.77E1 2E0
6.771E1 1E0
6.772E1 1E0
6.773E1 1E0
6.774E1 1E0
6.775E1 4E0
6.776E1 1E0
6.777E1 1E0
6.778E1 1E0
6.779E1 1E0
6.78E1 1E0
6.781E1 2E0
6.782E1 1E0
6.783E1 4E0
6.784E1 1E0
6.785E1 2E0
6.786E1 2E0
6.787E1 1E0
6.788E1 1E0
6.789E1 1E0
6.79E1 1E0
6.791E1 2E0
6.792E1 1E0
6.793E1 1E0
6.794E1 1E0
6.795E1 1E0
6.796E1 1E0
6.797E1 1E0
6.798E1 1E0
6.799E1 1E0
6.8E1 1E0
6.801E1 1E0
6.802E1 2E0
6.803E1 1E0
6.804E1 1E0
6.805E1 1E0
6.806E1 1E0
6.807E1 1E0
6.808E1 1E0
6.809E1 1E0
6.81E1 1E0
6.811E1 1E0
6.812E1 1E0
6.813E1 2E0
6.814E1 2E0
6.815E1 1E0
6.816E1 1E0
6.817E1 1E0
6.818E1 2E0
6.819E1 1E0
6.82E1 1E0
6.821E1 2E0
6.822E1 1E0
6.823E1 1E0
6.824E1 1E0
6.825E1 1E0
6.826E1 2E0
6.827E1 1E0
6.828E1 2E0
6.829E1 1E0
6.83E1 3E0
6.831E1 1E0
6.832E1 1E0
6.833E1 2E0
6.834E1 1E0
6.835E1 1E0
6.836E1 1E0
6.837E1 1E0
6.838E1 2E0
6.839E1 1E0
6.84E1 3E0
6.841E1 1E0
6.842E1 2E0
6.843E1 1E0
6.844E1 1E0
6.845E1 2E0
6.846E1 1E0
6.847E1 1E0
6.848E1 1E0
6.849E1 1E0
6.85E1 1E0
6.851E1 1E0
6.852E1 1E0
6.853E1 2E0
6.854E1 1E0
6.855E1 1E0
6.856E1 2E0
6.857E1 1E0
6.858E1 1E0
6.859E1 1E0
6.86E1 1E0
6.861E1 1E0
6.862E1 1E0
6.863E1 1E0
6.864E1 1E0
6.865E1 2E0
6.866E1 1E0
6.867E1 1E0
6.868E1 1E0
6.869E1 2E0
6.87E1 1E0
6.871E1 1E0
6.872E1 1E0
6.873E1 1E0
6.874E1 1E0
6.875E1 1E0
6.876E1 1E0
6.877E1 1E0
6.878E1 1E0
6.879E1 1E0
6.88E1 1E0
6.881E1 1E0
6.882E1 1E0
6.883E1 1E0
6.884E1 1E0
6.885E1 3E0
6.886E1 1E0
6.887E1 1E0
6.888E1 1E0
6.889E1 1E0
6.89E1 1E0
6.891E1 1E0
6.892E1 1E0
6.893E1 1E0
6.894E1 1E0
6.895E1 1E0
6.896E1 1E0
6.897E1 1E0
6.898E1 1E0
6.899E1 1E0
6.9E1 2E0
6.901E1 1E0
6.902E1 1E0
6.903E1 4E0
6.904E1 1E0
6.905E1 1E0
6.906E1 1E0
6.907E1 1E0
6.908E1 1E0
6.909E1 1E0
6.91E1 1E0
6.911E1 1E0
6.912E1 1E0
6.913E1 1E0
6.914E1 1E0
6.915E1 1E0
6.916E1 1E0
6.917E1 1E0
6.918E1 1E0
6.919E1 2E0
6.92E1 1E0
6.921E1 1E0
6.922E1 1E0
6.923E1 1E0
6.924E1 1E0
6.925E1 1E0
6.926E1 1E0
6.927E1 1E0
6.928E1 4E0
6.929E1 3E0
6.93E1 1E0
6.931E1 1E0
6.932E1 1E0
6.933E1 1E0
6.934E1 1E0
6.935E1 1E0
6.936E1 4E0
6.937E1 1E0
6.938E1 1E0
6.939E1 1E0
6.94E1 1E0
6.941E1 1E0
6.942E1 2E0
6.943E1 1E0
6.944E1 1E0
6.945E1 3E0
6.946E1 1E0
6.947E1 1E0
6.948E1 1E0
6.949E1 1E0
6.95E1 1E0
6.951E1 1E0
6.952E1 2E0
6.953E1 1E0
6.954E1 2E0
6.955E1 2E0
6.956E1 1E0
6.957E1 1E0
6.958E1 2E0
6.959E1 2E0
6.96E1 3E0
6.961E1 1E0
6.962E1 1E0
6.963E1 1E0
6.964E1 1E0
6.965E1 1E0
6.966E1 1E0
6.967E1 1E0
6.968E1 2E0
6.969E1 1E0
6.97E1 1E0
6.971E1 1E0
6.972E1 1E0
6.973E1 1E0
6.974E1 3E0
6.975E1 1E0
6.976E1 1E0
6.977E1 1E0
6.978E1 1E0
6.979E1 1E0
6.98E1 1E0
6.981E1 1E0
6.982E1 1E0
6.983E1 1E0
6.984E1 1E0
6.985E1 1E0
6.986E1 1E0
6.987E1 2E0
6.988E1 1E0
6.989E1 2E0
6.99E1 4E0
6.991E1 1E0
6.992E1 1E0
6.993E1 1E0
6.994E1 1E0
6.995E1 1E0
6.996E1 1E0
6.997E1 1E0
6.998E1 1E0
6.999E1 1E0
7E1 1E0
7.001E1 1E0
7.002E1 1E0
7.003E1 1E0
7.004E1 1E0
7.005E1 1E0
7.006E1 1E0
7.007E1 1E0
7.008E1 1E0
7.009E1 3E0
7.01E1 2E0
7.011E1 1E0
7.012E1 1E0
7.013E1 1E0
7.014E1 1E0
7.015E1 2E0
7.016E1 2E0
7.017E1 1E0
7.018E1 1E0
7.019E1 1E0
7.02E1 2E0
7.021E1 1E0
7.022E1 1E0
7.023E1 1E0
7.024E1 1E0
7.025E1 1E0
7.026E1 1E0
7.027E1 2E0
7.028E1 1E0
7.029E1 1E0
7.03E1 1E0
7.031E1 1E0
7.032E1 1E0
7.033E1 1E0
7.034E1 1E0
7.035E1 1E0
7.036E1 3E0
7.037E1 1E0
7.038E1 1E0
7.039E1 1E0
7.04E1 1E0
7.041E1 1E0
7.042E1 1E0
7.043E1 1E0
7.044E1 1E0
7.045E1 3E0
7.046E1 2E0
7.047E1 1E0
7.048E1 1E0
7.049E1 1E0
7.05E1 1E0
7.051E1 1E0
7.052E1 1E0
7.053E1 1E0
7.054E1 1E0
7.055E1 1E0
7.056E1 1E0
7.057E1 1E0
7.058E1 2E0
7.059E1 1E0
7.06E1 1E0
7.061E1 1E0
7.062E1 1E0
7.063E1 1E0
7.064E1 3E0
7.065E1 1E0
7.066E1 1E0
7.067E1 2E0
7.068E1 1E0
7.069E1 1E0
7.07E1 1E0
7.071E1 1E0
7.072E1 1E0
7.073E1 2E0
7.074E1 1E0
7.075E1 1E0
7.076E1 1E0
7.077E1 1E0
7.078E1 1E0
7.079E1 2E0
7.08E1 1E0
7.081E1 2E0
7.082E1 1E0
7.083E1 1E0
7.084E1 1E0
7.085E1 1E0
7.086E1 1E0
7.087E1 2E0
7.088E1 1E0
7.089E1 1E0
7.09E1 1E0
7.091E1 1E0
7.092E1 2E0
7.093E1 1E0
7.094E1 1E0
7.095E1 2E0
7.096E1 1E0
7.097E1 1E0
7.098E1 4E0
7.099E1 2E0
7.1E1 1E0
7.101E1 1E0
7.102E1 2E0
7.103E1 1E0
7.104E1 1E0
7.105E1 1E0
7.106E1 4E0
7.107E1 1E0
7.108E1 2E0
7.109E1 1E0
7.11E1 1E0
7.111E1 1E0
7.112E1 1E0
7.113E1 1E0
7.114E1 1E0
7.115E1 1E0
7.116E1 1E0
7.117E1 1E0
7.118E1 2E0
7.119E1 1E0
7.12E1 1E0
7.121E1 1E0
7.122E1 1E0
7.123E1 1E0
7.124E1 1E0
7.125E1 1E0
7.126E1 1E0
7.127E1 2E0
7.128E1 1E0
7.129E1 1E0
7.13E1 2E0
7.131E1 1E0
7.132E1 2E0
7.133E1 1E0
7.134E1 3E0
7.135E1 1E0
7.136E1 3E0
7.137E1 1E0
7.138E1 1E0
7.139E1 1E0
7.14E1 1E0
7.141E1 1E0
7.142E1 1E0
7.143E1 1E0
7.144E1 1E0
7.145E1 1E0
7.146E1 1E0
7.147E1 1E0
7.148E1 2E0
7.149E1 1E0
7.15E1 1E0
7.151E1 1E0
7.152E1 2E0
7.153E1 1E0
7.154E1 1E0
7.155E1 1E0
7.156E1 1E0
7.157E1 1E0
7.158E1 1E0
7.159E1 1E0
7.16E1 1E0
7.161E1 1E0
7.162E1 1E0
7.163E1 1E0
7.164E1 1E0
7.165E1 2E0
7.166E1 1E0
7.167E1 2E0
7.168E1 1E0
7.169E1 1E0
7.17E1 2E0
7.171E1 1E0
7.172E1 1E0
7.173E1 1E0
7.174E1 1E0
7.175E1 1E0
7.176E1 1E0
7.177E1 1E0
7.178E1 1E0
7.179E1 1E0
7.18E1 1E0
7.181E1 1E0
7.182E1 1E0
7.183E1 1E0
7.184E1 1E0
7.185E1 1E0
7.186E1 1E0
7.187E1 4E0
7.188E1 1E0
7.189E1 1E0
7.19E1 1E0
7.191E1 1E0
7.192E1 1E0
7.193E1 3E0
7.194E1 1E0
7.195E1 1E0
7.196E1 1E0
7.197E1 1E0
7.198E1 1E0
7.199E1 2E0
7.2E1 1E0
7.201E1 1E0
7.202E1 1E0
7.203E1 1E0
7.204E1 1E0
7.205E1 2E0
7.206E1 3E0
7.207E1 1E0
7.208E1 1E0
7.209E1 1E0
7.21E1 1E0
7.211E1 1E0
7.212E1 1E0
7.213E1 1E0
7.214E1 1E0
7.215E1 1E0
7.216E1 2E0
7.217E1 1E0
7.218E1 2E0
7.219E1 1E0
7.22E1 1E0
7.221E1 2E0
7.222E1 1E0
7.223E1 1E0
7.224E1 1E0
7.225E1 1E0
7.226E1 2E0
7.227E1 1E0
7.228E1 2E0
7.229E1 2E0
7.23E1 1E0
7.231E1 1E0
7.232E1 1E0
7.233E1 1E0
7.234E1 1E0
7.235E1 1E0
7.236E1 2E0
7.237E1 1E0
7.238E1 1E0
7.239E1 1E0
7.24E1 1E0
7.241E1 1E0
7.242E1 2E0
7.243E1 1E0
7.244E1 1E0
7.245E1 1E0
7.246E1 1E0
7.247E1 1E0
7.248E1 1E0
7.249E1 1E0
7.25E1 1E0
7.251E1 1E0
7.252E1 1E0
7.253E1 1E0
7.254E1 1E0
7.255E1 1E0
7.256E1 1E0
7.257E1 1E0
7.258E1 1E0
7.259E1 2E0
7.26E1 2E0
7.261E1 1E0
7.262E1 1E0
7.263E1 1E0
7.264E1 1E0
7.265E1 1E0
7.266E1 1E0
7.267E1 1E0
7.268E1 1E0
7.269E1 1E0
7.27E1 1E0
7.271E1 2E0
7.272E1 1E0
7.273E1 1E0
7.274E1 2E0
7.275E1 1E0
7.276E1 1E0
7.277E1 1E0
7.278E1 1E0
7.279E1 1E0
7.28E1 1E0
7.281E1 1E0
7.282E1 2E0
7.283E1 1E0
7.284E1 1E0
7.285E1 1E0
7.286E1 1E0
7.287E1 1E0
7.288E1 1E0
7.289E1 2E0
7.29E1 1E0
7.291E1 1E0
7.292E1 1E0
7.293E1 1E0
7.294E1 1E0
7.295E1 1E0
7.296E1 2E0
7.297E1 1E0
7.298E1 1E0
7.299E1 1E0
7.3E1 1E0
7.301E1 1E0
7.302E1 1E0
7.303E1 1E0
7.304E1 1E0
7.305E1 1E0
7.306E1 1E0
7.307E1 1E0
7.308E1 2E0
7.309E1 2E0
7.31E1 1E0
7.311E1 1E0
7.312E1 1E0
7.313E1 1E0
7.314E1 1E0
7.315E1 2E0
7.316E1 1E0
7.317E1 1E0
7.318E1 1E0
7.319E1 2E0
7.32E1 1E0
7.321E1 1E0
7.322E1 1E0
7.323E1 3E0
7.324E1 3E0
7.325E1 1E0
7.326E1 2E0
7.327E1 3E0
7.328E1 4E0
7.329E1 5E0
7.33E1 1.8E1
7.331E1 4.9E1
7.332E1 1.38E2
7.333E1 2.03E2
7.334E1 2.51E2
7.335E1 2.51E2
7.336E1 2.22E2
7.337E1 1.57E2
7.338E1 1.01E2
7.339E1 4.2E1
7.34E1 2.1E1
7.341E1 6E0
7.342E1 3E0
7.343E1 1E0
7.344E1 2E0
7.345E1 1E0
7.346E1 2E0
7.347E1 1E0
7.348E1 1E0
7.349E1 2E0
7.35E1 1E0
7.351E1 1E0
7.352E1 2E0
7.353E1 2E0
7.354E1 1E0
7.355E1 1E0
7.356E1 1E0
7.357E1 2E0
7.358E1 1E0
7.359E1 1E0
7.36E1 1E0
7.361E1 3E0
7.362E1 3E0
7.363E1 1E0
7.364E1 1E0
7.365E1 1E0
7.366E1 1E0
7.367E1 1E0
7.368E1 1E0
7.369E1 2E0
7.37E1 1E0
7.371E1 1E0
7.372E1 2E0
7.373E1 1E0
7.374E1 1E0
7.375E1 2E0
7.376E1 2E0
7.377E1 1E0
7.378E1 2E0
7.379E1 1E0
7.38E1 2E0
7.381E1 1E0
7.382E1 1E0
7.383E1 1E0
7.384E1 1E0
7.385E1 1E0
7.386E1 1E0
7.387E1 1E0
7.388E1 1E0
7.389E1 1E0
7.39E1 1E0
7.391E1 1E0
7.392E1 1E0
7.393E1 3E0
7.394E1 1E0
7.395E1 1E0
7.396E1 1E0
7.397E1 1E0
7.398E1 1E0
7.399E1 3E0
7.4E1 2E0
7.401E1 1E0
7.402E1 1E0
7.403E1 1E0
7.404E1 1E0
7.405E1 1E0
7.406E1 2E0
7.407E1 1E0
7.408E1 3E0
7.409E1 1E0
7.41E1 1E0
7.411E1 1E0
7.412E1 3E0
7.413E1 1E0
7.414E1 2E0
7.415E1 1E0
7.416E1 1E0
7.417E1 1E0
7.418E1 1E0
7.419E1 1E0
7.42E1 3E0
7.421E1 1E0
7.422E1 1E0
7.423E1 2E0
7.424E1 1E0
7.425E1 1E0
7.426E1 1E0
7.427E1 1E0
7.428E1 2E0
7.429E1 1E0
7.43E1 1E0
7.431E1 1E0
7.432E1 1E0
7.433E1 2E0
7.434E1 1E0
7.435E1 1E0
7.436E1 1E0
7.437E1 1E0
7.438E1 6E0
7.439E1 3E0
7.44E1 1E0
7.441E1 1E0
7.442E1 1E0
7.443E1 1E0
7.444E1 1E0
7.445E1 5E0
7.446E1 1E0
7.447E1 1E0
7.448E1 1E0
7.449E1 1E0
7.45E1 2E0
7.451E1 1E0
7.452E1 1E0
7.453E1 1E0
7.454E1 1E0
7.455E1 1E0
7.456E1 1E0
7.457E1 2E0
7.458E1 1E0
7.459E1 1E0
7.46E1 1E0
7.461E1 1E0
7.462E1 1E0
7.463E1 1E0
7.464E1 1E0
7.465E1 1E0
7.466E1 2E0
7.467E1 1E0
7.468E1 1E0
7.469E1 3E0
7.47E1 1E0
7.471E1 1E0
7.472E1 1E0
7.473E1 2E0
7.474E1 2E0
7.475E1 1E0
7.476E1 1E0
7.477E1 3E0
7.478E1 1E0
7.479E1 1E0
7.48E1 1E0
7.481E1 3E0
7.482E1 1E0
7.483E1 1E0
7.484E1 1E0
7.485E1 1E0
7.486E1 1E0
7.487E1 1E0
7.488E1 1E0
7.489E1 1E0
7.49E1 1E0
7.491E1 1E0
7.492E1 1E0
7.493E1 1E0
7.494E1 1E0
7.495E1 1E0
7.496E1 1E0
7.497E1 1E0
7.498E1 1E0
7.499E1 2E0
7.5E1 1E0
7.501E1 2E0
7.502E1 1E0
7.503E1 1E0
7.504E1 1E0
7.505E1 1E0
7.506E1 1E0
7.507E1 1E0
7.508E1 1E0
7.509E1 1E0
7.51E1 1E0
7.511E1 1E0
7.512E1 1E0
7.513E1 1E0
7.514E1 1E0
7.515E1 1E0
7.516E1 1E0
7.517E1 1E0
7.518E1 1E0
7.519E1 3E0
7.52E1 1E0
7.521E1 1E0
7.522E1 1E0
7.523E1 2E0
7.524E1 1E0
7.525E1 1E0
7.526E1 1E0
7.527E1 2E0
7.528E1 1E0
7.529E1 1E0
7.53E1 1E0
7.531E1 1E0
7.532E1 3E0
7.533E1 1E0
7.534E1 1E0
7.535E1 1E0
7.536E1 2E0
7.537E1 1E0
7.538E1 1E0
7.539E1 1E0
7.54E1 3E0
7.541E1 4E0
7.542E1 1E0
7.543E1 2E0
7.544E1 2E0
7.545E1 1E0
7.546E1 1E0
7.547E1 1E0
7.548E1 1E0
7.549E1 1E0
7.55E1 1E0
7.551E1 1E0
7.552E1 1E0
7.553E1 1E0
7.554E1 1E0
7.555E1 3E0
7.556E1 1E0
7.557E1 1E0
7.558E1 4E0
7.559E1 1E0
7.56E1 1E0
7.561E1 3E0
7.562E1 1E0
7.563E1 1E0
7.564E1 1E0
7.565E1 1E0
7.566E1 1E0
7.567E1 1E0
7.568E1 1E0
7.569E1 3E0
7.57E1 1E0
7.571E1 1E0
7.572E1 1E0
7.573E1 1E0
7.574E1 1E0
7.575E1 2E0
7.576E1 1E0
7.577E1 1E0
7.578E1 1E0
7.579E1 5E0
7.58E1 1E0
7.581E1 1E0
7.582E1 2E0
7.583E1 1E0
7.584E1 1E0
7.585E1 3E0
7.586E1 3E0
7.587E1 1E0
7.588E1 1E0
7.589E1 2E0
7.59E1 2E0
7.591E1 1E0
7.592E1 1E0
7.593E1 1E0
7.594E1 1E0
7.595E1 1E0
7.596E1 1E0
7.597E1 1E0
7.598E1 1E0
7.599E1 1E0
7.6E1 1E0
7.601E1 1E0
7.602E1 1E0
7.603E1 2E0
7.604E1 1E0
7.605E1 2E0
7.606E1 1E0
7.607E1 1E0
7.608E1 1E0
7.609E1 1E0
7.61E1 1E0
7.611E1 1E0
7.612E1 1E0
7.613E1 1E0
7.614E1 1E0
7.615E1 1E0
7.616E1 2E0
7.617E1 1E0
7.618E1 1E0
7.619E1 1E0
7.62E1 1E0
7.621E1 2E0
7.622E1 1E0
7.623E1 1E0
7.624E1 1E0
7.625E1 1E0
7.626E1 1E0
7.627E1 1E0
7.628E1 1E0
7.629E1 1E0
7.63E1 1E0
7.631E1 1E0
7.632E1 2E0
7.633E1 1E0
7.634E1 3E0
7.635E1 2E0
7.636E1 1E0
7.637E1 1E0
7.638E1 1E0
7.639E1 1E0
7.64E1 1E0
7.641E1 2E0
7.642E1 1E0
7.643E1 1E0
7.644E1 1E0
7.645E1 1E0
7.646E1 1E0
7.647E1 1E0
7.648E1 1E0
7.649E1 1E0
7.65E1 1E0
7.651E1 1E0
7.652E1 1E0
7.653E1 1E0
7.654E1 2E0
7.655E1 1E0
7.656E1 1E0
7.657E1 1E0
7.658E1 1E0
7.659E1 1E0
7.66E1 1E0
7.661E1 1E0
7.662E1 1E0
7.663E1 1E0
7.664E1 1E0
7.665E1 1E0
7.666E1 1E0
7.667E1 1E0
7.668E1 1E0
7.669E1 1E0
7.67E1 1E0
7.671E1 1E0
7.672E1 2E0
7.673E1 1E0
7.674E1 1E0
7.675E1 1E0
7.676E1 1E0
7.677E1 1E0
7.678E1 1E0
7.679E1 1E0
7.68E1 1E0
7.681E1 1E0
7.682E1 1E0
7.683E1 1E0
7.684E1 1E0
7.685E1 1E0
7.686E1 2E0
7.687E1 1E0
7.688E1 1E0
7.689E1 1E0
7.69E1 1E0
7.691E1 1E0
7.692E1 1E0
7.693E1 2E0
7.694E1 2E0
7.695E1 1E0
7.696E1 2E0
7.697E1 3E0
7.698E1 1E0
7.699E1 1E0
7.7E1 1E0
7.701E1 1E0
7.702E1 1E0
7.703E1 1E0
7.704E1 4E0
7.705E1 2E0
7.706E1 1E0
7.707E1 1E0
7.708E1 1E0
7.709E1 1E0
7.71E1 1E0
7.711E1 1E0
7.712E1 2E0
7.713E1 1E0
7.714E1 1E0
7.715E1 2E0
7.716E1 1E0
7.717E1 2E0
7.718E1 1E0
7.719E1 1E0
7.72E1 3E0
7.721E1 3E0
7.722E1 1E0
7.723E1 3E0
7.724E1 1E0
7.725E1 2E0
7.726E1 3E0
7.727E1 2E0
7.728E1 1E0
7.729E1 1E0
7.73E1 2E0
7.731E1 1E0
7.732E1 1E0
7.733E1 1E0
7.734E1 1E0
7.735E1 2E0
7.736E1 1E0
7.737E1 2E0
7.738E1 1E0
7.739E1 1E0
7.74E1 1E0
7.741E1 1E0
7.742E1 1E0
7.743E1 1E0
7.744E1 1E0
7.745E1 1E0
7.746E1 2E0
7.747E1 1E0
7.748E1 1E0
7.749E1 1E0
7.75E1 1E0
7.751E1 1E0
7.752E1 1E0
7.753E1 1E0
7.754E1 1E0
7.755E1 1E0
7.756E1 1E0
7.757E1 1E0
7.758E1 1E0
7.759E1 1E0
7.76E1 3E0
7.761E1 1E0
7.762E1 1E0
7.763E1 1E0
7.764E1 1E0
7.765E1 1E0
7.766E1 1E0
7.767E1 1E0
7.768E1 1E0
7.769E1 1E0
7.77E1 1E0
7.771E1 2E0
7.772E1 2E0
7.773E1 2E0
7.774E1 1E0
7.775E1 1E0
7.776E1 1E0
7.777E1 3E0
7.778E1 1E0
7.779E1 1E0
7.78E1 1E0
7.781E1 2E0
7.782E1 1E0
7.783E1 1E0
7.784E1 1E0
7.785E1 1E0
7.786E1 2E0
7.787E1 1E0
7.788E1 3E0
7.789E1 4E0
7.79E1 1E0
7.791E1 1E0
7.792E1 2E0
7.793E1 1E0
7.794E1 1E0
7.795E1 3E0
7.796E1 1E0
7.797E1 1E0
7.798E1 3E0
7.799E1 3E0
7.8E1 1E0
7.801E1 1E0
7.802E1 1E0
7.803E1 2E0
7.804E1 1E0
7.805E1 1E0
7.806E1 3E0
7.807E1 1E0
7.808E1 1E0
7.809E1 1E0
7.81E1 1E0
7.811E1 1E0
7.812E1 1E0
7.813E1 1E0
7.814E1 2E0
7.815E1 1E0
7.816E1 2E0
7.817E1 3E0
7.818E1 1E0
7.819E1 1E0
7.82E1 1E0
7.821E1 2E0
7.822E1 1E0
7.823E1 1E0
7.824E1 1E0
7.825E1 2E0
7.826E1 1E0
7.827E1 1E0
7.828E1 1E0
7.829E1 1E0
7.83E1 1E0
7.831E1 1E0
7.832E1 2E0
7.833E1 1E0
7.834E1 7E0
7.835E1 2E0
7.836E1 1E0
7.837E1 1E0
7.838E1 2E0
7.839E1 1E0
7.84E1 1E0
7.841E1 1E0
7.842E1 3E0
7.843E1 1E0
7.844E1 5E0
7.845E1 3E0
7.846E1 6E0
7.847E1 2E0
7.848E1 3E0
7.849E1 3E0
7.85E1 1E0
7.851E1 2E0
7.852E1 4E0
7.853E1 3E0
7.854E1 4E0
7.855E1 4E0
7.856E1 8E0
7.857E1 4E0
7.858E1 1E0
7.859E1 6E0
7.86E1 6E0
7.861E1 8E0
7.862E1 6E0
7.863E1 5E0
7.864E1 6E0
7.865E1 1.2E1
7.866E1 1.2E1
7.867E1 1.2E1
7.868E1 1.7E1
7.869E1 1.4E1
7.87E1 1.8E1
7.871E1 2E1
7.872E1 1.8E1
7.873E1 2.4E1
7.874E1 3.1E1
7.875E1 2.6E1
7.876E1 3.6E1
7.877E1 4.3E1
7.878E1 4.4E1
7.879E1 4.2E1
7.88E1 4.8E1
7.881E1 4.5E1
7.882E1 4.2E1
7.883E1 5.7E1
7.884E1 4.5E1
7.885E1 3.9E1
7.886E1 4.5E1
7.887E1 4.2E1
7.888E1 4.7E1
7.889E1 5.4E1
7.89E1 3.9E1
7.891E1 4.4E1
7.892E1 4.1E1
7.893E1 4.4E1
7.894E1 2.8E1
7.895E1 2.5E1
7.896E1 1.9E1
7.897E1 1.5E1
7.898E1 2E1
7.899E1 1.8E1
7.9E1 1.5E1
7.901E1 9E0
7.902E1 1E1
7.903E1 8E0
7.904E1 8E0
7.905E1 5E0
7.906E1 7E0
7.907E1 1.2E1
7.908E1 9E0
7.909E1 2E0
7.91E1 6E0
7.911E1 1.1E1
7.912E1 3E0
7.913E1 2E0
7.914E1 4E0
7.915E1 3E0
7.916E1 5E0
7.917E1 2E0
7.918E1 4E0
7.919E1 1E0
7.92E1 1E0
7.921E1 3E0
7.922E1 7E0
7.923E1 2E0
7.924E1 2E0
7.925E1 1E0
7.926E1 3E0
7.927E1 3E0
7.928E1 3E0
7.929E1 2E0
7.93E1 1E0
7.931E1 2E0
7.932E1 4E0
7.933E1 1E0
7.934E1 4E0
7.935E1 1E0
7.936E1 1E0
7.937E1 1E0
7.938E1 1E0
7.939E1 2E0
7.94E1 1E0
7.941E1 1E0
7.942E1 3E0
7.943E1 1E0
7.944E1 3E0
7.945E1 1E0
7.946E1 1E0
7.947E1 1E0
7.948E1 1E0
7.949E1 1E0
7.95E1 2E0
7.951E1 1E0
7.952E1 1E0
7.953E1 1E0
7.954E1 1E0
7.955E1 1E0
7.956E1 2E0
7.957E1 1E0
7.958E1 2E0
7.959E1 1E0
7.96E1 1E0
7.961E1 2E0
7.962E1 1E0
7.963E1 1E0
7.964E1 1E0
7.965E1 1E0
7.966E1 3E0
7.967E1 1E0
7.968E1 3E0
7.969E1 1E0
7.97E1 1E0
7.971E1 2E0
7.972E1 1E0
7.973E1 1E0
7.974E1 2E0
7.975E1 1E0
7.976E1 3E0
7.977E1 1E0
7.978E1 1E0
7.979E1 1E0
7.98E1 1E0
7.981E1 1E0
7.982E1 1E0
7.983E1 1E0
7.984E1 2E0
7.985E1 3E0
7.986E1 2E0
7.987E1 1E0
7.988E1 1E0
7.989E1 1E0
7.99E1 1E0
7.991E1 1E0
7.992E1 2E0
7.993E1 1E0
7.994E1 1E0
7.995E1 1E0
7.996E1 1E0
7.997E1 1E0
7.998E1 1E0
7.999E1 1E0
8E1 1E0